Folder: FasTEX-KCL/raw_csv_data

Note: README.md
# FTIR-Based Textile Fiber Classification

[![Python](https://img.shields.io/badge/python-3.12-blue.svg)](https://www.python.org/downloads/)
[![License](https://img.shields.io/badge/license-MIT-green.svg)](LICENSE)

**Machine learning classification of textile fibers using FTIR spectroscopy and chemometric preprocessing**

---

## Overview

This repository contains the complete workflow for automated textile fiber classification using Fourier-Transform Infrared (FTIR) spectroscopy. The project implements multiple preprocessing pipelines and evaluates classification performance using Support Vector Machines (SVM) and Random Forest algorithms.

**Key Features:**
- Chemometric preprocessing (ALS baseline correction, SNV normalization, Savitzky-Golay derivatives)
- Multi-pipeline comparison (P1: ALS+SNV, P2: ALS+SNV+D1, P3: ALS+SNV+D2)
- Binary classification (Natural vs Man-made) and multiclass classification (fiber types/subtypes)
- Automated batch processing script for new samples
- Comprehensive visualization and analysis notebooks

---

## Repository Structure

```
Experiments/
â”œâ”€â”€ initial_analysis.ipynb                    # Exploratory data analysis and experimentation
â”œâ”€â”€ initial_preprocessing_experiments.ipynb   # Preprocessing method comparison
â”œâ”€â”€ initial_ml_classification.ipynb           # ML model development and testing
â”œâ”€â”€ data_analysis_and_figures.ipynb           # Final dataset analysis checks and visualisations
â”œâ”€â”€ pretreatments_and_classification.ipynb    # Final preprocessing pipeline evaluation
â”œâ”€â”€ spectral_visualisation.ipynb              # Spectral plotting utilities
â”‚
â”œâ”€â”€ Preprocessing Pipeline - Script/          # Standalone batch processing tool
â”‚   â”œâ”€â”€ process_spectra_pipeline.py           # Main script
â”‚   â”œâ”€â”€ README.md                             # Script documentation and instructions
â”‚   â”œâ”€â”€ exported_csvs/                        # Raw FTIR CSV input
â”‚   â”œâ”€â”€ metadata/                             # Sample metadata
â”‚   â””â”€â”€ ml_datasets/                          # Generated feature matrices
â”‚
â”œâ”€â”€ raw_csv_data/                             # Raw FTIR spectra (CSV format) from PerkinElmer Spectrum exports
â”œâ”€â”€ ml_datasets/                              # Preprocessed datasets for ML
â”œâ”€â”€ images/                                   # Output figures
â””â”€â”€ requirements.txt                          # Python dependencies
```

---

## Datasets

**Fiber Collections:**
- Microtrace Forensic Fiber Reference Collection (synthetic fibers)
- Microtrace Arbidar Natural Fibre Collection (natural fibers)
- Bio-Couture & UNUSUWUL, associated with IMPACT+ (assorted fibers)

**Sample Coverage:**
- Natural fibers: Cotton, Linen, Jute, Silk, Wool
- Man-made fibers: Polyester, Nylon, Acrylic, Modacrylic, Regenerated Cellulose

**Spectral Data:**
- Spectral range: 4000-400 cmâ»Â¹
- Resolution: 4 cmâ»Â¹
- Multiple replicas per sample (1-3 scans)

---

File: Nylon 10.3.csv
Created as New Dataset,93 Du Pont
cm-1,%T
4000.00,98.71
3988.00,98.72
3976.00,98.75
3964.00,98.71
3952.00,98.75
3940.00,98.71
3928.00,98.73
3916.00,98.75
3904.00,98.75
3892.00,98.76
3880.00,98.73
3868.00,98.82
3856.00,98.80
3844.00,98.74
3832.00,98.77
3820.00,98.79
3808.00,98.63
3796.00,98.68
3784.00,98.56
3772.00,98.59
3760.00,98.51
3748.00,98.61
3736.00,98.62
3724.00,98.47
3712.00,98.48
3700.00,98.42
3688.00,98.38
3676.00,98.26
3664.00,98.17
3652.00,98.23
3640.00,98.02
3628.00,98.02
3616.00,97.93
3604.00,97.77
3592.00,97.76
3580.00,97.55
3568.00,97.34
3556.00,97.17
3544.00,96.90
3532.00,96.79
3520.00,96.43
3508.00,96.27
3496.00,96.09
3484.00,95.99
3472.00,95.88
3460.00,95.82
3448.00,95.72
3436.00,95.60
3424.00,95.63
3412.00,95.44
3400.00,95.23
3388.00,95.02
3376.00,94.64
3364.00,93.91
3352.00,92.93
3340.00,91.03
3328.00,88.15
3316.00,83.56
3304.00,78.81
3292.00,78.61
3280.00,81.47
3268.00,84.11
3256.00,86.59
3244.00,88.85
3232.00,90.54
3220.00,91.59
3208.00,92.20
3196.00,92.67
3184.00,93.29
3172.00,94.02
3160.00,94.63
3148.00,95.00
3136.00,95.12
3124.00,95.01
3112.00,94.57
3100.00,93.84
3088.00,93.20
3076.00,93.06
3064.00,93.33
3052.00,94.12
3040.00,95.16
3028.00,95.74
3016.00,96.02
3004.00,96.12
2992.00,96.04
2980.00,95.18
2968.00,92.94
2956.00,89.44
2944.00,83.39
2932.00,79.48
2920.00,82.81
2908.00,86.12
2896.00,89.25
2884.00,89.83
2872.00,86.87
2860.00,84.63
2848.00,89.27
2836.00,93.39
2824.00,94.27
2812.00,94.92
2800.00,95.35
2788.00,95.63
2776.00,95.83
2764.00,95.96
2752.00,96.03
2740.00,96.15
2728.00,96.26
2716.00,96.45
2704.00,96.46
2692.00,96.50
2680.00,96.57
2668.00,96.66
2656.00,96.55
2644.00,96.47
2632.00,96.38
2620.00,96.32
2608.00,96.22
2596.00,96.11
2584.00,96.08
2572.00,96.04
2560.00,96.03
2548.00,96.05
2536.00,96.08
2524.00,96.08
2512.00,96.10
2500.00,96.10
2488.00,96.16
2476.00,96.12
2464.00,96.13
2452.00,96.18
2440.00,96.20
2428.00,96.29
2416.00,96.35
2404.00,96.41
2392.00,96.49
2380.00,96.75
2368.00,96.82
2356.00,96.88
2344.00,96.83
2332.00,96.93
2320.00,96.52
2308.00,96.26
2296.00,96.04
2284.00,95.70
2272.00,95.50
2260.00,95.27
2248.00,95.17
2236.00,94.97
2224.00,94.77
2212.00,94.51
2200.00,94.34
2188.00,93.87
2176.00,93.89
2164.00,93.20
2152.00,94.25
2140.00,94.82
2128.00,95.17
2116.00,95.35
2104.00,95.32
2092.00,95.36
2080.00,95.23
2068.00,94.94
2056.00,94.88
2044.00,94.25
2032.00,93.98
2020.00,94.02
2008.00,94.24
1996.00,94.53
1984.00,94.22
1972.00,94.29
1960.00,94.84
1948.00,95.28
1936.00,95.55
1924.00,95.79
1912.00,95.97
1900.00,96.15
1888.00,96.26
1876.00,96.33
1864.00,96.44
1852.00,96.54
1840.00,96.68
1828.00,96.74
1816.00,96.89
1804.00,96.93
1792.00,96.97
1780.00,97.02
1768.00,96.96
1756.00,96.79
1744.00,96.46
1732.00,96.21
1720.00,96.32
1708.00,96.30
1696.00,96.23
1684.00,94.48
1672.00,89.45
1660.00,80.16
1648.00,68.11
1636.00,55.09
1624.00,59.70
1612.00,72.87
1600.00,82.15
1588.00,85.19
1576.00,82.44
1564.00,75.38
1552.00,67.33
1540.00,58.11
1528.00,55.98
1516.00,67.42
1504.00,76.66
1492.00,81.87
1480.00,79.82
1468.00,76.38
1456.00,77.52
1444.00,79.27
1432.00,79.21
1420.00,77.94
1408.00,82.88
1396.00,84.86
1384.00,82.42
1372.00,78.41
1360.00,80.07
1348.00,82.71
1336.00,84.26
1324.00,84.82
1312.00,84.41
1300.00,83.23
1288.00,81.69
1276.00,74.62
1264.00,75.73
1252.00,78.83
1240.00,80.42
1228.00,82.32
1216.00,83.86
1204.00,80.36
1192.00,79.16
1180.00,79.98
1168.00,85.03
1156.00,85.86
1144.00,83.36
1132.00,85.67
1120.00,87.52
1108.00,87.83
1096.00,88.05
1084.00,88.70
1072.00,88.91
1060.00,88.29
1048.00,88.45
1036.00,88.52
1024.00,89.32
1012.00,89.48
1000.00,90.02
988.00,90.43
976.00,91.09
964.00,91.11
952.00,90.43
940.00,87.22
928.00,86.58
916.00,89.13
904.00,88.93
892.00,90.75
880.00,90.98
868.00,91.31
856.00,91.19
844.00,90.98
832.00,90.67
820.00,90.35
808.00,89.57
796.00,88.47
784.00,87.88
772.00,86.73
760.00,85.18
748.00,83.74
736.00,79.99
724.00,75.87
712.00,75.54
700.00,73.33
688.00,69.59
676.00,69.43
664.00,71.97
652.00,74.48
640.00,76.13
628.00,76.73
616.00,77.11
604.00,75.43
592.00,73.04
580.00,67.04
568.00,68.94
556.00,70.38
550.00,73.28

File: Nylon - 1.csv
Created as New Dataset,90. Du Pont
cm-1,%T
4000.00,100.14
3988.00,100.01
3976.00,100.03
3964.00,100.07
3952.00,100.05
3940.00,100.14
3928.00,100.14
3916.00,100.08
3904.00,100.08
3892.00,100.10
3880.00,100.07
3868.00,100.11
3856.00,100.22
3844.00,100.16
3832.00,100.05
3820.00,100.11
3808.00,100.13
3796.00,99.99
3784.00,100.05
3772.00,100.02
3760.00,100.03
3748.00,100.17
3736.00,100.07
3724.00,100.04
3712.00,100.06
3700.00,99.96
3688.00,99.86
3676.00,99.88
3664.00,99.84
3652.00,99.87
3640.00,99.78
3628.00,99.84
3616.00,99.86
3604.00,99.71
3592.00,99.71
3580.00,99.57
3568.00,99.67
3556.00,99.37
3544.00,99.38
3532.00,99.27
3520.00,99.15
3508.00,99.08
3496.00,99.01
3484.00,98.99
3472.00,98.98
3460.00,98.93
3448.00,98.87
3436.00,98.84
3424.00,98.86
3412.00,98.83
3400.00,98.73
3388.00,98.61
3376.00,98.48
3364.00,98.28
3352.00,97.95
3340.00,97.40
3328.00,96.37
3316.00,94.39
3304.00,91.44
3292.00,91.27
3280.00,92.97
3268.00,94.14
3256.00,95.13
3244.00,95.92
3232.00,96.66
3220.00,97.05
3208.00,97.32
3196.00,97.46
3184.00,97.73
3172.00,97.99
3160.00,98.30
3148.00,98.37
3136.00,98.50
3124.00,98.42
3112.00,98.33
3100.00,98.03
3088.00,97.78
3076.00,97.69
3064.00,97.76
3052.00,97.98
3040.00,98.46
3028.00,98.72
3016.00,98.85
3004.00,98.91
2992.00,98.85
2980.00,98.64
2968.00,97.82
2956.00,96.59
2944.00,93.89
2932.00,92.25
2920.00,93.46
2908.00,94.83
2896.00,96.17
2884.00,96.32
2872.00,95.10
2860.00,94.28
2848.00,95.84
2836.00,97.56
2824.00,97.89
2812.00,98.16
2800.00,98.29
2788.00,98.45
2776.00,98.50
2764.00,98.57
2752.00,98.58
2740.00,98.64
2728.00,98.69
2716.00,98.77
2704.00,98.78
2692.00,98.79
2680.00,98.83
2668.00,98.82
2656.00,98.83
2644.00,98.83
2632.00,98.75
2620.00,98.82
2608.00,98.72
2596.00,98.70
2584.00,98.66
2572.00,98.70
2560.00,98.69
2548.00,98.70
2536.00,98.72
2524.00,98.73
2512.00,98.73
2500.00,98.72
2488.00,98.67
2476.00,98.74
2464.00,98.75
2452.00,98.75
2440.00,98.73
2428.00,98.76
2416.00,98.75
2404.00,98.75
2392.00,98.80
2380.00,98.86
2368.00,98.87
2356.00,98.86
2344.00,98.78
2332.00,98.73
2320.00,98.68
2308.00,98.77
2296.00,98.67
2284.00,98.57
2272.00,98.55
2260.00,98.55
2248.00,98.47
2236.00,98.40
2224.00,98.50
2212.00,98.26
2200.00,98.20
2188.00,98.24
2176.00,98.12
2164.00,98.11
2152.00,98.26
2140.00,98.35
2128.00,98.47
2116.00,98.48
2104.00,98.49
2092.00,98.40
2080.00,98.40
2068.00,98.40
2056.00,98.25
2044.00,98.24
2032.00,98.17
2020.00,98.25
2008.00,98.37
1996.00,98.39
1984.00,98.27
1972.00,98.27
1960.00,98.44
1948.00,98.49
1936.00,98.56
1924.00,98.51
1912.00,98.58
1900.00,98.65
1888.00,98.74
1876.00,98.75
1864.00,98.82
1852.00,98.75
1840.00,98.87
1828.00,98.95
1816.00,98.93
1804.00,98.95
1792.00,99.02
1780.00,99.04
1768.00,98.96
1756.00,98.98
1744.00,98.88
1732.00,98.83
1720.00,98.86
1708.00,98.87
1696.00,98.97
1684.00,98.56
1672.00,96.99
1660.00,93.52
1648.00,88.87
1636.00,82.67
1624.00,83.77
1612.00,88.81
1600.00,92.43
1588.00,94.01
1576.00,93.27
1564.00,90.85
1552.00,87.94
1540.00,83.38
1528.00,81.47
1516.00,86.42
1504.00,90.12
1492.00,92.08
1480.00,91.54
1468.00,89.73
1456.00,90.53
1444.00,91.26
1432.00,91.35
1420.00,90.74
1408.00,92.29
1396.00,93.26
1384.00,92.47
1372.00,90.75
1360.00,91.43
1348.00,92.42
1336.00,93.16
1324.00,93.40
1312.00,93.47
1300.00,92.98
1288.00,92.50
1276.00,89.00
1264.00,89.64
1252.00,91.07
1240.00,91.95
1228.00,92.70
1216.00,93.39
1204.00,91.92
1192.00,90.83
1180.00,91.45
1168.00,93.19
1156.00,93.60
1144.00,92.89
1132.00,93.46
1120.00,94.23
1108.00,94.37
1096.00,94.41
1084.00,94.69
1072.00,94.90
1060.00,94.64
1048.00,94.78
1036.00,94.72
1024.00,95.11
1012.00,95.17
1000.00,95.42
988.00,95.64
976.00,95.96
964.00,96.00
952.00,95.82
940.00,94.47
928.00,93.75
916.00,95.11
904.00,95.01
892.00,95.78
880.00,95.89
868.00,95.98
856.00,96.07
844.00,96.11
832.00,96.03
820.00,95.89
808.00,95.63
796.00,95.39
784.00,95.15
772.00,94.84
760.00,94.27
748.00,93.85
736.00,92.56
724.00,90.79
712.00,90.40
700.00,89.26
688.00,86.55
676.00,86.76
664.00,88.18
652.00,89.64
640.00,90.09
628.00,90.35
616.00,90.35
604.00,90.00
592.00,89.23
580.00,85.71
568.00,86.40
556.00,89.05
550.00,90.11

File: Nylon - 2.csv
Created as New Dataset,83. Allied Signal Fibers
cm-1,%T
4000.00,97.88
3988.00,97.83
3976.00,97.92
3964.00,97.85
3952.00,97.96
3940.00,97.90
3928.00,97.88
3916.00,97.87
3904.00,97.97
3892.00,97.89
3880.00,97.91
3868.00,97.92
3856.00,97.93
3844.00,97.98
3832.00,97.78
3820.00,97.79
3808.00,97.77
3796.00,97.74
3784.00,97.72
3772.00,97.74
3760.00,97.69
3748.00,97.74
3736.00,97.73
3724.00,97.67
3712.00,97.72
3700.00,97.59
3688.00,97.52
3676.00,97.46
3664.00,97.43
3652.00,97.46
3640.00,97.33
3628.00,97.27
3616.00,97.18
3604.00,97.05
3592.00,96.99
3580.00,96.79
3568.00,96.71
3556.00,96.57
3544.00,96.32
3532.00,96.04
3520.00,95.89
3508.00,95.62
3496.00,95.42
3484.00,95.41
3472.00,95.31
3460.00,95.27
3448.00,95.09
3436.00,95.03
3424.00,95.00
3412.00,94.90
3400.00,94.77
3388.00,94.61
3376.00,94.33
3364.00,93.84
3352.00,93.06
3340.00,91.85
3328.00,89.78
3316.00,86.81
3304.00,83.05
3292.00,81.64
3280.00,83.60
3268.00,85.67
3256.00,87.70
3244.00,89.50
3232.00,90.87
3220.00,91.71
3208.00,92.23
3196.00,92.70
3184.00,93.29
3172.00,93.83
3160.00,94.39
3148.00,94.75
3136.00,94.78
3124.00,94.70
3112.00,94.19
3100.00,93.51
3088.00,93.14
3076.00,93.25
3064.00,93.69
3052.00,94.42
3040.00,95.16
3028.00,95.61
3016.00,95.82
3004.00,95.96
2992.00,95.91
2980.00,95.27
2968.00,93.48
2956.00,90.79
2944.00,86.11
2932.00,83.80
2920.00,85.32
2908.00,88.63
2896.00,90.25
2884.00,91.23
2872.00,88.86
2860.00,87.20
2848.00,89.88
2836.00,93.74
2824.00,94.63
2812.00,95.09
2800.00,95.45
2788.00,95.67
2776.00,95.84
2764.00,95.97
2752.00,96.03
2740.00,96.08
2728.00,96.22
2716.00,96.35
2704.00,96.43
2692.00,96.44
2680.00,96.48
2668.00,96.56
2656.00,96.46
2644.00,96.41
2632.00,96.34
2620.00,96.28
2608.00,96.21
2596.00,96.20
2584.00,96.14
2572.00,96.13
2560.00,96.08
2548.00,96.11
2536.00,96.07
2524.00,96.15
2512.00,96.21
2500.00,96.25
2488.00,96.24
2476.00,96.23
2464.00,96.23
2452.00,96.25
2440.00,96.26
2428.00,96.34
2416.00,96.33
2404.00,96.42
2392.00,96.49
2380.00,96.69
2368.00,96.84
2356.00,96.82
2344.00,96.83
2332.00,96.79
2320.00,96.56
2308.00,96.47
2296.00,96.23
2284.00,95.94
2272.00,95.82
2260.00,95.58
2248.00,95.42
2236.00,95.28
2224.00,95.18
2212.00,94.98
2200.00,94.95
2188.00,94.58
2176.00,94.50
2164.00,93.95
2152.00,94.60
2140.00,95.04
2128.00,95.67
2116.00,95.67
2104.00,95.57
2092.00,95.76
2080.00,95.60
2068.00,95.44
2056.00,95.30
2044.00,94.94
2032.00,94.64
2020.00,94.81
2008.00,94.79
1996.00,95.27
1984.00,94.92
1972.00,94.95
1960.00,95.28
1948.00,95.83
1936.00,96.02
1924.00,96.24
1912.00,96.34
1900.00,96.48
1888.00,96.54
1876.00,96.68
1864.00,96.74
1852.00,96.90
1840.00,96.95
1828.00,96.95
1816.00,97.07
1804.00,97.15
1792.00,97.20
1780.00,97.20
1768.00,97.21
1756.00,97.08
1744.00,96.92
1732.00,96.99
1720.00,96.92
1708.00,96.89
1696.00,96.74
1684.00,95.33
1672.00,91.28
1660.00,82.92
1648.00,73.81
1636.00,63.12
1624.00,66.71
1612.00,76.54
1600.00,84.56
1588.00,87.12
1576.00,83.25
1564.00,76.11
1552.00,71.11
1540.00,65.58
1528.00,69.29
1516.00,77.00
1504.00,83.04
1492.00,86.36
1480.00,84.49
1468.00,82.45
1456.00,81.93
1444.00,82.74
1432.00,82.65
1420.00,82.90
1408.00,85.81
1396.00,87.91
1384.00,86.17
1372.00,83.33
1360.00,84.28
1348.00,86.18
1336.00,87.19
1324.00,87.85
1312.00,87.02
1300.00,86.10
1288.00,86.11
1276.00,84.60
1264.00,80.82
1252.00,83.08
1240.00,83.95
1228.00,86.12
1216.00,86.45
1204.00,84.84
1192.00,86.55
1180.00,87.96
1168.00,82.93
1156.00,88.74
1144.00,90.95
1132.00,91.35
1120.00,88.68
1108.00,89.76
1096.00,91.07
1084.00,90.77
1072.00,90.47
1060.00,91.26
1048.00,92.25
1036.00,92.25
1024.00,91.96
1012.00,92.41
1000.00,92.22
988.00,91.91
976.00,90.75
964.00,91.10
952.00,91.50
940.00,92.42
928.00,91.57
916.00,92.51
904.00,92.91
892.00,93.09
880.00,93.27
868.00,93.34
856.00,93.36
844.00,93.11
832.00,92.10
820.00,92.40
808.00,91.76
796.00,91.02
784.00,89.95
772.00,89.01
760.00,88.15
748.00,86.20
736.00,83.46
724.00,80.34
712.00,78.83
700.00,77.72
688.00,75.81
676.00,76.43
664.00,78.04
652.00,79.98
640.00,80.99
628.00,80.00
616.00,79.91
604.00,79.38
592.00,79.19
580.00,75.40
568.00,77.17
556.00,77.33
550.00,77.61

File: Nylon - 3.csv
Created as New Dataset,103. Du Pont (Red thread)
cm-1,%T
4000.00,99.22
3988.00,99.20
3976.00,99.14
3964.00,99.20
3952.00,99.17
3940.00,99.18
3928.00,99.19
3916.00,99.16
3904.00,99.14
3892.00,99.10
3880.00,99.17
3868.00,99.10
3856.00,99.10
3844.00,99.10
3832.00,99.06
3820.00,99.14
3808.00,99.01
3796.00,99.03
3784.00,99.08
3772.00,99.06
3760.00,98.99
3748.00,98.92
3736.00,98.96
3724.00,98.84
3712.00,98.87
3700.00,98.57
3688.00,98.56
3676.00,98.55
3664.00,98.63
3652.00,98.58
3640.00,98.64
3628.00,98.61
3616.00,98.43
3604.00,98.59
3592.00,98.51
3580.00,98.43
3568.00,98.38
3556.00,98.33
3544.00,98.25
3532.00,98.15
3520.00,98.08
3508.00,97.98
3496.00,98.00
3484.00,97.88
3472.00,97.88
3460.00,97.81
3448.00,97.64
3436.00,97.55
3424.00,97.67
3412.00,97.65
3400.00,97.59
3388.00,97.47
3376.00,97.27
3364.00,96.99
3352.00,96.61
3340.00,95.88
3328.00,95.27
3316.00,94.45
3304.00,93.77
3292.00,93.37
3280.00,93.15
3268.00,93.31
3256.00,93.71
3244.00,94.52
3232.00,95.37
3220.00,95.88
3208.00,96.24
3196.00,96.39
3184.00,96.62
3172.00,96.94
3160.00,97.21
3148.00,97.47
3136.00,97.58
3124.00,97.55
3112.00,97.45
3100.00,97.23
3088.00,96.93
3076.00,96.67
3064.00,96.73
3052.00,97.07
3040.00,97.53
3028.00,97.79
3016.00,97.98
3004.00,98.06
2992.00,98.03
2980.00,97.76
2968.00,96.83
2956.00,94.87
2944.00,91.41
2932.00,85.46
2920.00,82.08
2908.00,85.24
2896.00,87.95
2884.00,90.88
2872.00,92.43
2860.00,88.92
2848.00,86.10
2836.00,91.96
2824.00,95.17
2812.00,96.04
2800.00,96.44
2788.00,96.84
2776.00,97.08
2764.00,97.24
2752.00,97.35
2740.00,97.44
2728.00,97.43
2716.00,97.52
2704.00,97.55
2692.00,97.59
2680.00,97.59
2668.00,97.64
2656.00,97.61
2644.00,97.59
2632.00,97.53
2620.00,97.55
2608.00,97.51
2596.00,97.52
2584.00,97.50
2572.00,97.49
2560.00,97.51
2548.00,97.53
2536.00,97.56
2524.00,97.61
2512.00,97.64
2500.00,97.58
2488.00,97.59
2476.00,97.67
2464.00,97.64
2452.00,97.67
2440.00,97.70
2428.00,97.76
2416.00,97.73
2404.00,97.78
2392.00,97.88
2380.00,97.95
2368.00,97.95
2356.00,97.85
2344.00,98.01
2332.00,98.02
2320.00,97.81
2308.00,97.81
2296.00,97.73
2284.00,97.50
2272.00,97.38
2260.00,97.28
2248.00,97.28
2236.00,97.12
2224.00,97.05
2212.00,96.90
2200.00,96.69
2188.00,96.77
2176.00,96.65
2164.00,96.39
2152.00,96.84
2140.00,97.08
2128.00,97.33
2116.00,97.31
2104.00,97.45
2092.00,97.51
2080.00,97.35
2068.00,97.37
2056.00,97.16
2044.00,96.87
2032.00,96.81
2020.00,96.83
2008.00,96.98
1996.00,97.07
1984.00,96.84
1972.00,96.91
1960.00,97.20
1948.00,97.39
1936.00,97.60
1924.00,97.77
1912.00,97.88
1900.00,97.96
1888.00,98.05
1876.00,98.08
1864.00,98.20
1852.00,98.22
1840.00,98.28
1828.00,98.38
1816.00,98.46
1804.00,98.53
1792.00,98.55
1780.00,98.56
1768.00,98.59
1756.00,98.48
1744.00,98.24
1732.00,98.04
1720.00,97.90
1708.00,97.87
1696.00,98.20
1684.00,96.91
1672.00,93.75
1660.00,89.08
1648.00,82.65
1636.00,77.09
1624.00,80.37
1612.00,87.14
1600.00,91.85
1588.00,93.57
1576.00,92.61
1564.00,88.22
1552.00,81.65
1540.00,77.97
1528.00,79.64
1516.00,83.99
1504.00,87.31
1492.00,90.37
1480.00,92.37
1468.00,90.01
1456.00,88.90
1444.00,86.49
1432.00,90.01
1420.00,91.28
1408.00,93.21
1396.00,93.80
1384.00,92.80
1372.00,91.84
1360.00,90.91
1348.00,91.29
1336.00,91.29
1324.00,92.38
1312.00,92.61
1300.00,92.52
1288.00,93.18
1276.00,92.15
1264.00,91.59
1252.00,91.06
1240.00,91.29
1228.00,91.62
1216.00,92.15
1204.00,92.88
1192.00,93.45
1180.00,94.03
1168.00,94.23
1156.00,93.14
1144.00,94.42
1132.00,91.94
1120.00,91.66
1108.00,92.22
1096.00,92.61
1084.00,93.95
1072.00,94.60
1060.00,94.78
1048.00,94.60
1036.00,93.25
1024.00,93.64
1012.00,93.74
1000.00,94.44
988.00,95.39
976.00,95.29
964.00,94.20
952.00,94.50
940.00,94.92
928.00,95.46
916.00,94.98
904.00,94.26
892.00,94.93
880.00,96.37
868.00,96.79
856.00,97.11
844.00,97.14
832.00,97.08
820.00,96.94
808.00,97.03
796.00,96.61
784.00,96.31
772.00,96.11
760.00,95.34
748.00,94.70
736.00,93.72
724.00,91.51
712.00,91.32
700.00,90.74
688.00,90.63
676.00,91.62
664.00,92.09
652.00,92.18
640.00,91.60
628.00,91.85
616.00,92.37
604.00,92.44
592.00,91.40
580.00,91.23
568.00,91.83
556.00,89.87
550.00,91.67

File: Nylon - 4.csv
Created as New Dataset,77 Nylon Allied Signal Fibers USA PA-6. Superba heat set 1190d. carpet yarn. No after-treatment. 4 of 7 in a series of fiber processing techniques
cm-1,%T
4000.00,103.11
3988.00,103.04
3976.00,103.08
3964.00,103.09
3952.00,103.17
3940.00,103.17
3928.00,103.19
3916.00,103.13
3904.00,103.34
3892.00,103.13
3880.00,103.18
3868.00,103.29
3856.00,103.59
3844.00,103.20
3832.00,103.21
3820.00,103.28
3808.00,103.17
3796.00,103.09
3784.00,102.99
3772.00,103.05
3760.00,103.07
3748.00,103.43
3736.00,103.34
3724.00,103.10
3712.00,103.10
3700.00,102.93
3688.00,103.03
3676.00,103.10
3664.00,102.81
3652.00,103.10
3640.00,102.74
3628.00,102.93
3616.00,102.85
3604.00,102.62
3592.00,102.53
3580.00,102.51
3568.00,102.48
3556.00,102.31
3544.00,102.22
3532.00,102.06
3520.00,101.96
3508.00,101.80
3496.00,101.67
3484.00,101.67
3472.00,101.52
3460.00,101.47
3448.00,101.45
3436.00,101.34
3424.00,101.24
3412.00,101.06
3400.00,100.93
3388.00,100.70
3376.00,100.54
3364.00,99.98
3352.00,99.30
3340.00,98.21
3328.00,96.62
3316.00,94.29
3304.00,91.09
3292.00,89.24
3280.00,91.53
3268.00,93.67
3256.00,95.51
3244.00,96.95
3232.00,98.02
3220.00,98.65
3208.00,98.94
3196.00,99.24
3184.00,99.64
3172.00,100.05
3160.00,100.53
3148.00,100.72
3136.00,100.82
3124.00,100.72
3112.00,100.46
3100.00,100.02
3088.00,99.56
3076.00,99.37
3064.00,99.48
3052.00,100.04
3040.00,100.76
3028.00,101.11
3016.00,101.25
3004.00,101.24
2992.00,101.12
2980.00,100.39
2968.00,98.90
2956.00,96.46
2944.00,92.46
2932.00,91.63
2920.00,93.55
2908.00,95.49
2896.00,96.54
2884.00,97.20
2872.00,94.92
2860.00,94.57
2848.00,97.18
2836.00,99.89
2824.00,100.43
2812.00,100.75
2800.00,100.95
2788.00,101.14
2776.00,101.26
2764.00,101.37
2752.00,101.37
2740.00,101.42
2728.00,101.53
2716.00,101.58
2704.00,101.59
2692.00,101.65
2680.00,101.67
2668.00,101.68
2656.00,101.62
2644.00,101.60
2632.00,101.54
2620.00,101.52
2608.00,101.48
2596.00,101.50
2584.00,101.43
2572.00,101.52
2560.00,101.47
2548.00,101.48
2536.00,101.46
2524.00,101.52
2512.00,101.51
2500.00,101.57
2488.00,101.52
2476.00,101.48
2464.00,101.53
2452.00,101.45
2440.00,101.48
2428.00,101.52
2416.00,101.51
2404.00,101.61
2392.00,101.62
2380.00,101.76
2368.00,101.78
2356.00,101.73
2344.00,101.80
2332.00,101.54
2320.00,101.26
2308.00,101.28
2296.00,101.36
2284.00,101.17
2272.00,101.15
2260.00,101.06
2248.00,100.90
2236.00,100.89
2224.00,100.74
2212.00,100.79
2200.00,100.45
2188.00,100.38
2176.00,100.54
2164.00,100.15
2152.00,100.56
2140.00,100.64
2128.00,101.03
2116.00,100.94
2104.00,100.94
2092.00,100.93
2080.00,100.81
2068.00,100.80
2056.00,100.73
2044.00,100.39
2032.00,100.38
2020.00,100.37
2008.00,100.53
1996.00,100.60
1984.00,100.37
1972.00,100.47
1960.00,100.67
1948.00,100.76
1936.00,100.97
1924.00,100.97
1912.00,100.98
1900.00,101.06
1888.00,101.03
1876.00,101.07
1864.00,101.07
1852.00,101.19
1840.00,101.12
1828.00,101.11
1816.00,101.13
1804.00,101.10
1792.00,101.09
1780.00,101.03
1768.00,100.89
1756.00,100.75
1744.00,100.42
1732.00,100.29
1720.00,100.15
1708.00,100.01
1696.00,99.86
1684.00,98.16
1672.00,94.57
1660.00,89.30
1648.00,83.39
1636.00,75.45
1624.00,79.33
1612.00,86.92
1600.00,92.71
1588.00,94.38
1576.00,92.58
1564.00,88.28
1552.00,83.25
1540.00,78.59
1528.00,81.24
1516.00,86.92
1504.00,91.48
1492.00,94.00
1480.00,91.00
1468.00,90.31
1456.00,90.25
1444.00,91.08
1432.00,91.14
1420.00,90.20
1408.00,92.61
1396.00,94.54
1384.00,93.00
1372.00,91.09
1360.00,92.19
1348.00,93.22
1336.00,93.86
1324.00,94.41
1312.00,94.02
1300.00,93.35
1288.00,92.85
1276.00,92.11
1264.00,89.24
1252.00,91.09
1240.00,91.65
1228.00,93.77
1216.00,93.46
1204.00,91.96
1192.00,93.43
1180.00,94.54
1168.00,92.52
1156.00,95.44
1144.00,96.74
1132.00,96.73
1120.00,95.11
1108.00,95.43
1096.00,96.21
1084.00,96.37
1072.00,96.21
1060.00,96.90
1048.00,97.59
1036.00,97.48
1024.00,97.49
1012.00,97.88
1000.00,97.94
988.00,97.45
976.00,97.10
964.00,96.65
952.00,96.69
940.00,97.62
928.00,96.89
916.00,97.90
904.00,98.23
892.00,98.27
880.00,98.41
868.00,98.48
856.00,98.43
844.00,98.17
832.00,97.24
820.00,97.84
808.00,97.55
796.00,97.00
784.00,96.42
772.00,95.80
760.00,95.06
748.00,94.22
736.00,92.13
724.00,90.26
712.00,89.27
700.00,88.01
688.00,85.60
676.00,85.96
664.00,87.36
652.00,89.17
640.00,90.05
628.00,90.28
616.00,90.07
604.00,90.14
592.00,88.96
580.00,85.34
568.00,86.15
556.00,88.46
550.00,87.43