Folder: FasTEX-KCL/raw_csv_data (part 3)

File: Nylon - 10.5.csv
Created as New Dataset,97. Du Pont (Bright Yellow)
cm-1,%T
4000.00,97.10
3988.00,97.06
3976.00,97.02
3964.00,97.06
3952.00,97.06
3940.00,97.03
3928.00,96.98
3916.00,96.97
3904.00,97.03
3892.00,96.97
3880.00,96.94
3868.00,96.97
3856.00,97.05
3844.00,96.96
3832.00,96.97
3820.00,96.91
3808.00,96.95
3796.00,96.89
3784.00,96.82
3772.00,96.84
3760.00,96.72
3748.00,96.76
3736.00,96.74
3724.00,96.61
3712.00,96.65
3700.00,96.64
3688.00,96.61
3676.00,96.49
3664.00,96.46
3652.00,96.45
3640.00,96.35
3628.00,96.37
3616.00,96.32
3604.00,96.26
3592.00,96.32
3580.00,96.14
3568.00,96.07
3556.00,95.97
3544.00,95.85
3532.00,95.83
3520.00,95.63
3508.00,95.58
3496.00,95.44
3484.00,95.40
3472.00,95.34
3460.00,95.29
3448.00,95.29
3436.00,95.27
3424.00,95.29
3412.00,95.11
3400.00,95.02
3388.00,94.98
3376.00,94.85
3364.00,94.51
3352.00,94.12
3340.00,93.20
3328.00,91.57
3316.00,88.57
3304.00,85.00
3292.00,84.54
3280.00,86.61
3268.00,88.26
3256.00,89.53
3244.00,90.66
3232.00,91.47
3220.00,92.01
3208.00,92.33
3196.00,92.54
3184.00,92.82
3172.00,93.18
3160.00,93.56
3148.00,93.80
3136.00,93.97
3124.00,93.96
3112.00,93.76
3100.00,93.45
3088.00,93.20
3076.00,93.03
3064.00,92.97
3052.00,93.31
3040.00,93.92
3028.00,94.26
3016.00,94.51
3004.00,94.67
2992.00,94.78
2980.00,94.53
2968.00,93.58
2956.00,91.79
2944.00,87.91
2932.00,85.35
2920.00,87.04
2908.00,88.75
2896.00,90.45
2884.00,90.84
2872.00,89.22
2860.00,88.00
2848.00,90.05
2836.00,92.09
2824.00,92.66
2812.00,93.04
2800.00,93.31
2788.00,93.51
2776.00,93.61
2764.00,93.73
2752.00,93.78
2740.00,93.83
2728.00,93.90
2716.00,94.04
2704.00,94.10
2692.00,94.13
2680.00,94.12
2668.00,94.17
2656.00,94.11
2644.00,94.00
2632.00,93.89
2620.00,93.85
2608.00,93.72
2596.00,93.62
2584.00,93.55
2572.00,93.58
2560.00,93.56
2548.00,93.61
2536.00,93.61
2524.00,93.55
2512.00,93.62
2500.00,93.61
2488.00,93.65
2476.00,93.64
2464.00,93.63
2452.00,93.66
2440.00,93.71
2428.00,93.77
2416.00,93.83
2404.00,93.84
2392.00,93.91
2380.00,94.16
2368.00,94.42
2356.00,94.45
2344.00,94.56
2332.00,94.38
2320.00,94.21
2308.00,94.00
2296.00,93.67
2284.00,93.26
2272.00,93.15
2260.00,92.94
2248.00,92.88
2236.00,92.72
2224.00,92.57
2212.00,92.38
2200.00,91.95
2188.00,91.92
2176.00,91.78
2164.00,91.29
2152.00,92.18
2140.00,92.53
2128.00,92.96
2116.00,93.10
2104.00,93.19
2092.00,93.16
2080.00,93.02
2068.00,92.89
2056.00,92.73
2044.00,92.30
2032.00,92.04
2020.00,92.10
2008.00,92.36
1996.00,92.56
1984.00,92.35
1972.00,92.44
1960.00,92.80
1948.00,93.24
1936.00,93.55
1924.00,93.75
1912.00,93.98
1900.00,94.10
1888.00,94.32
1876.00,94.37
1864.00,94.55
1852.00,94.69
1840.00,94.82
1828.00,94.96
1816.00,95.12
1804.00,95.22
1792.00,95.37
1780.00,95.50
1768.00,95.58
1756.00,95.53
1744.00,95.24
1732.00,95.26
1720.00,95.53
1708.00,95.74
1696.00,96.12
1684.00,95.54
1672.00,93.07
1660.00,87.10
1648.00,78.75
1636.00,68.96
1624.00,72.50
1612.00,80.81
1600.00,86.09
1588.00,88.52
1576.00,87.76
1564.00,83.93
1552.00,78.72
1540.00,70.24
1528.00,65.21
1516.00,73.11
1504.00,79.86
1492.00,83.88
1480.00,83.27
1468.00,81.32
1456.00,82.39
1444.00,83.77
1432.00,84.04
1420.00,83.13
1408.00,85.51
1396.00,86.75
1384.00,85.44
1372.00,82.56
1360.00,83.78
1348.00,85.65
1336.00,86.72
1324.00,87.09
1312.00,87.19
1300.00,86.61
1288.00,85.80
1276.00,79.56
1264.00,79.67
1252.00,82.02
1240.00,83.26
1228.00,84.29
1216.00,85.53
1204.00,83.20
1192.00,80.63
1180.00,82.48
1168.00,85.57
1156.00,86.60
1144.00,85.63
1132.00,87.13
1120.00,88.57
1108.00,89.07
1096.00,89.26
1084.00,89.55
1072.00,89.87
1060.00,89.36
1048.00,89.65
1036.00,89.37
1024.00,90.11
1012.00,90.36
1000.00,90.92
988.00,91.17
976.00,91.80
964.00,92.07
952.00,91.76
940.00,89.29
928.00,88.24
916.00,90.65
904.00,90.59
892.00,91.89
880.00,92.20
868.00,92.49
856.00,92.47
844.00,92.36
832.00,92.31
820.00,92.09
808.00,91.79
796.00,91.02
784.00,90.65
772.00,89.95
760.00,89.10
748.00,88.18
736.00,85.43
724.00,82.62
712.00,82.15
700.00,80.21
688.00,76.51
676.00,76.66
664.00,78.78
652.00,80.89
640.00,82.49
628.00,82.66
616.00,82.91
604.00,82.14
592.00,79.54
580.00,74.05
568.00,75.07
556.00,77.27
550.00,78.94

File: Nylon - 10.csv
Created as New Dataset,80. Nylon Allied Signal Fibers Dyed
cm-1,%T
4000.00,100.06
3988.00,100.04
3976.00,100.01
3964.00,100.09
3952.00,100.04
3940.00,100.04
3928.00,100.05
3916.00,99.98
3904.00,100.01
3892.00,99.94
3880.00,99.98
3868.00,99.92
3856.00,99.88
3844.00,100.02
3832.00,99.91
3820.00,99.84
3808.00,99.94
3796.00,99.96
3784.00,100.00
3772.00,99.97
3760.00,99.93
3748.00,99.77
3736.00,99.82
3724.00,99.88
3712.00,99.84
3700.00,99.92
3688.00,99.80
3676.00,99.75
3664.00,99.85
3652.00,99.66
3640.00,99.82
3628.00,99.64
3616.00,99.61
3604.00,99.54
3592.00,99.52
3580.00,99.57
3568.00,99.36
3556.00,99.40
3544.00,99.22
3532.00,99.13
3520.00,99.06
3508.00,99.02
3496.00,98.95
3484.00,98.84
3472.00,98.82
3460.00,98.77
3448.00,98.65
3436.00,98.57
3424.00,98.59
3412.00,98.43
3400.00,98.40
3388.00,98.23
3376.00,97.98
3364.00,97.73
3352.00,97.29
3340.00,96.51
3328.00,95.20
3316.00,93.04
3304.00,89.69
3292.00,88.12
3280.00,90.56
3268.00,92.66
3256.00,94.26
3244.00,95.40
3232.00,96.23
3220.00,96.72
3208.00,96.89
3196.00,97.12
3184.00,97.35
3172.00,97.75
3160.00,98.03
3148.00,98.28
3136.00,98.37
3124.00,98.32
3112.00,98.15
3100.00,97.84
3088.00,97.62
3076.00,97.41
3064.00,97.32
3052.00,97.64
3040.00,98.22
3028.00,98.58
3016.00,98.69
3004.00,98.60
2992.00,98.55
2980.00,98.17
2968.00,97.12
2956.00,95.29
2944.00,91.52
2932.00,90.85
2920.00,92.57
2908.00,94.13
2896.00,94.74
2884.00,95.48
2872.00,93.43
2860.00,93.30
2848.00,95.13
2836.00,97.45
2824.00,97.96
2812.00,98.23
2800.00,98.41
2788.00,98.58
2776.00,98.70
2764.00,98.81
2752.00,98.80
2740.00,98.82
2728.00,98.93
2716.00,99.05
2704.00,99.08
2692.00,99.15
2680.00,99.18
2668.00,99.22
2656.00,99.15
2644.00,99.13
2632.00,99.13
2620.00,99.10
2608.00,99.07
2596.00,99.09
2584.00,99.10
2572.00,99.11
2560.00,99.11
2548.00,99.11
2536.00,99.06
2524.00,99.12
2512.00,99.20
2500.00,99.22
2488.00,99.24
2476.00,99.19
2464.00,99.24
2452.00,99.26
2440.00,99.26
2428.00,99.33
2416.00,99.34
2404.00,99.41
2392.00,99.43
2380.00,99.49
2368.00,99.47
2356.00,99.37
2344.00,99.46
2332.00,99.36
2320.00,99.35
2308.00,99.25
2296.00,99.33
2284.00,99.24
2272.00,99.20
2260.00,99.15
2248.00,99.15
2236.00,99.13
2224.00,99.11
2212.00,98.97
2200.00,98.88
2188.00,98.91
2176.00,98.77
2164.00,98.66
2152.00,98.99
2140.00,99.09
2128.00,99.39
2116.00,99.23
2104.00,99.25
2092.00,99.41
2080.00,99.26
2068.00,99.09
2056.00,99.13
2044.00,98.94
2032.00,99.04
2020.00,98.98
2008.00,98.98
1996.00,99.21
1984.00,98.98
1972.00,99.13
1960.00,99.18
1948.00,99.32
1936.00,99.46
1924.00,99.52
1912.00,99.51
1900.00,99.58
1888.00,99.59
1876.00,99.72
1864.00,99.72
1852.00,99.83
1840.00,99.77
1828.00,99.77
1816.00,99.93
1804.00,99.92
1792.00,99.91
1780.00,99.91
1768.00,99.84
1756.00,99.70
1744.00,99.14
1732.00,98.39
1720.00,98.37
1708.00,98.57
1696.00,98.68
1684.00,97.65
1672.00,95.22
1660.00,90.60
1648.00,85.33
1636.00,77.75
1624.00,80.85
1612.00,86.68
1600.00,91.82
1588.00,94.00
1576.00,92.99
1564.00,89.95
1552.00,85.76
1540.00,80.58
1528.00,82.83
1516.00,87.97
1504.00,91.91
1492.00,93.94
1480.00,90.98
1468.00,90.98
1456.00,90.91
1444.00,91.83
1432.00,92.11
1420.00,90.71
1408.00,92.36
1396.00,94.49
1384.00,93.38
1372.00,91.68
1360.00,92.76
1348.00,93.66
1336.00,94.29
1324.00,94.83
1312.00,94.60
1300.00,93.98
1288.00,93.53
1276.00,92.88
1264.00,89.84
1252.00,91.74
1240.00,92.46
1228.00,94.32
1216.00,93.99
1204.00,92.49
1192.00,93.29
1180.00,94.40
1168.00,92.68
1156.00,94.99
1144.00,96.39
1132.00,96.90
1120.00,95.84
1108.00,96.18
1096.00,97.10
1084.00,97.22
1072.00,97.17
1060.00,97.76
1048.00,98.40
1036.00,98.21
1024.00,98.16
1012.00,98.78
1000.00,98.91
988.00,98.72
976.00,98.35
964.00,97.83
952.00,97.71
940.00,98.80
928.00,98.02
916.00,99.17
904.00,99.57
892.00,99.63
880.00,99.78
868.00,99.93
856.00,100.00
844.00,99.72
832.00,99.02
820.00,99.60
808.00,99.44
796.00,98.90
784.00,98.66
772.00,98.19
760.00,97.69
748.00,96.96
736.00,95.03
724.00,93.34
712.00,92.43
700.00,90.86
688.00,87.74
676.00,88.13
664.00,89.91
652.00,91.29
640.00,92.76
628.00,93.00
616.00,93.12
604.00,92.33
592.00,91.46
580.00,88.89
568.00,87.98
556.00,90.28
550.00,90.90

File: Nylon - 11.csv
Created as New Dataset,81. Nylon Allied Signal Fibers
cm-1,%T
4000.00,99.02
3988.00,99.03
3976.00,99.04
3964.00,99.10
3952.00,99.09
3940.00,99.07
3928.00,99.12
3916.00,99.09
3904.00,99.07
3892.00,99.05
3880.00,99.08
3868.00,99.06
3856.00,99.18
3844.00,99.12
3832.00,99.10
3820.00,99.08
3808.00,99.04
3796.00,99.01
3784.00,99.00
3772.00,98.99
3760.00,98.97
3748.00,99.11
3736.00,99.09
3724.00,99.02
3712.00,99.04
3700.00,98.92
3688.00,98.92
3676.00,98.93
3664.00,98.82
3652.00,98.85
3640.00,98.74
3628.00,98.92
3616.00,98.85
3604.00,98.64
3592.00,98.62
3580.00,98.53
3568.00,98.57
3556.00,98.35
3544.00,98.31
3532.00,98.18
3520.00,98.08
3508.00,98.05
3496.00,97.90
3484.00,97.85
3472.00,97.84
3460.00,97.79
3448.00,97.72
3436.00,97.60
3424.00,97.66
3412.00,97.58
3400.00,97.42
3388.00,97.32
3376.00,97.13
3364.00,96.77
3352.00,96.14
3340.00,95.29
3328.00,94.01
3316.00,92.12
3304.00,90.10
3292.00,89.63
3280.00,90.59
3268.00,91.62
3256.00,92.90
3244.00,94.14
3232.00,95.02
3220.00,95.60
3208.00,95.91
3196.00,96.17
3184.00,96.53
3172.00,96.89
3160.00,97.23
3148.00,97.39
3136.00,97.36
3124.00,97.35
3112.00,97.09
3100.00,96.62
3088.00,96.30
3076.00,96.20
3064.00,96.54
3052.00,96.98
3040.00,97.45
3028.00,97.74
3016.00,97.89
3004.00,97.91
2992.00,97.82
2980.00,97.31
2968.00,96.19
2956.00,94.23
2944.00,91.46
2932.00,90.30
2920.00,91.43
2908.00,93.21
2896.00,94.22
2884.00,94.88
2872.00,93.27
2860.00,92.32
2848.00,94.36
2836.00,96.78
2824.00,97.28
2812.00,97.57
2800.00,97.77
2788.00,97.88
2776.00,98.02
2764.00,98.06
2752.00,98.12
2740.00,98.17
2728.00,98.20
2716.00,98.25
2704.00,98.32
2692.00,98.32
2680.00,98.39
2668.00,98.38
2656.00,98.32
2644.00,98.27
2632.00,98.27
2620.00,98.19
2608.00,98.21
2596.00,98.21
2584.00,98.20
2572.00,98.18
2560.00,98.15
2548.00,98.19
2536.00,98.07
2524.00,98.15
2512.00,98.23
2500.00,98.25
2488.00,98.18
2476.00,98.14
2464.00,98.18
2452.00,98.12
2440.00,98.20
2428.00,98.23
2416.00,98.21
2404.00,98.26
2392.00,98.37
2380.00,98.47
2368.00,98.61
2356.00,98.63
2344.00,98.82
2332.00,98.59
2320.00,98.39
2308.00,98.34
2296.00,98.23
2284.00,97.94
2272.00,97.89
2260.00,97.70
2248.00,97.72
2236.00,97.70
2224.00,97.37
2212.00,97.43
2200.00,97.45
2188.00,97.16
2176.00,97.18
2164.00,96.95
2152.00,97.26
2140.00,97.50
2128.00,97.72
2116.00,97.71
2104.00,97.76
2092.00,97.78
2080.00,97.71
2068.00,97.69
2056.00,97.63
2044.00,97.28
2032.00,97.15
2020.00,97.34
2008.00,97.30
1996.00,97.46
1984.00,97.23
1972.00,97.25
1960.00,97.64
1948.00,97.75
1936.00,97.87
1924.00,97.94
1912.00,97.99
1900.00,98.09
1888.00,98.09
1876.00,98.20
1864.00,98.20
1852.00,98.22
1840.00,98.26
1828.00,98.27
1816.00,98.38
1804.00,98.37
1792.00,98.43
1780.00,98.31
1768.00,98.37
1756.00,98.26
1744.00,98.19
1732.00,98.14
1720.00,98.04
1708.00,97.93
1696.00,97.85
1684.00,96.61
1672.00,93.56
1660.00,88.85
1648.00,83.31
1636.00,76.81
1624.00,79.52
1612.00,85.83
1600.00,90.96
1588.00,92.44
1576.00,90.64
1564.00,86.31
1552.00,82.50
1540.00,79.85
1528.00,81.77
1516.00,86.16
1504.00,90.04
1492.00,92.22
1480.00,90.70
1468.00,89.47
1456.00,89.13
1444.00,89.70
1432.00,89.39
1420.00,89.49
1408.00,91.60
1396.00,93.17
1384.00,91.95
1372.00,90.26
1360.00,90.94
1348.00,92.00
1336.00,92.47
1324.00,92.91
1312.00,92.47
1300.00,91.99
1288.00,91.62
1276.00,90.81
1264.00,89.16
1252.00,89.87
1240.00,90.41
1228.00,92.30
1216.00,92.36
1204.00,91.11
1192.00,92.26
1180.00,92.98
1168.00,90.49
1156.00,93.65
1144.00,95.06
1132.00,95.15
1120.00,93.44
1108.00,93.84
1096.00,94.89
1084.00,94.78
1072.00,94.56
1060.00,95.23
1048.00,95.88
1036.00,95.92
1024.00,95.90
1012.00,96.18
1000.00,96.13
988.00,95.77
976.00,95.40
964.00,95.26
952.00,95.47
940.00,96.14
928.00,95.79
916.00,96.32
904.00,96.59
892.00,96.72
880.00,96.80
868.00,96.90
856.00,96.83
844.00,96.53
832.00,95.98
820.00,96.30
808.00,95.97
796.00,95.39
784.00,94.87
772.00,94.12
760.00,93.58
748.00,92.55
736.00,90.68
724.00,88.93
712.00,88.52
700.00,87.57
688.00,86.18
676.00,86.14
664.00,87.17
652.00,88.27
640.00,88.80
628.00,89.46
616.00,88.94
604.00,88.49
592.00,87.84
580.00,86.59
568.00,84.87
556.00,88.07
550.00,87.03

File: Nylon - 14.csv
Created as New Dataset,92 Du Pont
cm-1,%T
4000.00,98.13
3988.00,98.15
3976.00,98.14
3964.00,98.20
3952.00,98.22
3940.00,98.22
3928.00,98.18
3916.00,98.19
3904.00,98.26
3892.00,98.21
3880.00,98.19
3868.00,98.19
3856.00,98.24
3844.00,98.16
3832.00,98.17
3820.00,98.14
3808.00,98.06
3796.00,98.07
3784.00,98.00
3772.00,97.94
3760.00,98.01
3748.00,98.04
3736.00,97.98
3724.00,97.79
3712.00,97.81
3700.00,97.75
3688.00,97.78
3676.00,97.75
3664.00,97.60
3652.00,97.51
3640.00,97.51
3628.00,97.53
3616.00,97.33
3604.00,97.23
3592.00,97.11
3580.00,97.09
3568.00,96.90
3556.00,96.73
3544.00,96.56
3532.00,96.37
3520.00,96.12
3508.00,95.94
3496.00,95.83
3484.00,95.72
3472.00,95.63
3460.00,95.61
3448.00,95.50
3436.00,95.41
3424.00,95.30
3412.00,95.29
3400.00,95.10
3388.00,94.86
3376.00,94.44
3364.00,93.84
3352.00,92.74
3340.00,91.05
3328.00,88.33
3316.00,83.90
3304.00,79.21
3292.00,78.89
3280.00,81.32
3268.00,83.74
3256.00,86.27
3244.00,88.54
3232.00,90.21
3220.00,91.26
3208.00,91.83
3196.00,92.33
3184.00,92.90
3172.00,93.55
3160.00,94.23
3148.00,94.60
3136.00,94.73
3124.00,94.53
3112.00,94.18
3100.00,93.47
3088.00,92.76
3076.00,92.62
3064.00,92.92
3052.00,93.75
3040.00,94.73
3028.00,95.29
3016.00,95.59
3004.00,95.74
2992.00,95.57
2980.00,94.75
2968.00,92.59
2956.00,89.28
2944.00,83.44
2932.00,79.58
2920.00,82.59
2908.00,85.50
2896.00,88.18
2884.00,88.71
2872.00,86.03
2860.00,83.85
2848.00,88.46
2836.00,92.63
2824.00,93.54
2812.00,94.18
2800.00,94.64
2788.00,95.03
2776.00,95.27
2764.00,95.40
2752.00,95.49
2740.00,95.51
2728.00,95.73
2716.00,95.89
2704.00,95.99
2692.00,95.98
2680.00,96.05
2668.00,96.11
2656.00,96.05
2644.00,95.96
2632.00,95.89
2620.00,95.80
2608.00,95.67
2596.00,95.54
2584.00,95.45
2572.00,95.44
2560.00,95.52
2548.00,95.50
2536.00,95.48
2524.00,95.52
2512.00,95.60
2500.00,95.63
2488.00,95.55
2476.00,95.58
2464.00,95.58
2452.00,95.64
2440.00,95.65
2428.00,95.73
2416.00,95.78
2404.00,95.90
2392.00,96.00
2380.00,96.22
2368.00,96.59
2356.00,96.57
2344.00,96.48
2332.00,96.38
2320.00,96.05
2308.00,96.00
2296.00,95.62
2284.00,95.21
2272.00,94.92
2260.00,94.68
2248.00,94.39
2236.00,94.27
2224.00,94.04
2212.00,93.88
2200.00,93.59
2188.00,93.35
2176.00,93.28
2164.00,92.35
2152.00,93.30
2140.00,93.98
2128.00,94.75
2116.00,94.77
2104.00,94.73
2092.00,94.79
2080.00,94.68
2068.00,94.30
2056.00,94.16
2044.00,93.59
2032.00,93.20
2020.00,93.34
2008.00,93.57
1996.00,93.87
1984.00,93.57
1972.00,93.80
1960.00,94.17
1948.00,94.61
1936.00,95.04
1924.00,95.29
1912.00,95.54
1900.00,95.72
1888.00,95.92
1876.00,95.93
1864.00,96.07
1852.00,96.19
1840.00,96.32
1828.00,96.42
1816.00,96.53
1804.00,96.60
1792.00,96.69
1780.00,96.72
1768.00,96.69
1756.00,96.52
1744.00,96.16
1732.00,95.97
1720.00,96.11
1708.00,96.14
1696.00,96.04
1684.00,94.28
1672.00,89.17
1660.00,80.10
1648.00,67.90
1636.00,54.59
1624.00,59.61
1612.00,72.66
1600.00,81.94
1588.00,85.15
1576.00,82.42
1564.00,75.44
1552.00,67.50
1540.00,58.70
1528.00,56.82
1516.00,67.65
1504.00,76.65
1492.00,81.86
1480.00,79.84
1468.00,76.17
1456.00,77.28
1444.00,79.22
1432.00,79.18
1420.00,77.93
1408.00,82.75
1396.00,84.78
1384.00,82.42
1372.00,78.52
1360.00,79.83
1348.00,82.25
1336.00,84.04
1324.00,84.67
1312.00,84.28
1300.00,83.06
1288.00,81.47
1276.00,74.67
1264.00,75.91
1252.00,78.79
1240.00,80.06
1228.00,82.10
1216.00,83.72
1204.00,80.52
1192.00,79.21
1180.00,79.89
1168.00,84.73
1156.00,85.26
1144.00,82.41
1132.00,84.52
1120.00,84.12
1108.00,85.19
1096.00,86.89
1084.00,87.96
1072.00,88.38
1060.00,87.58
1048.00,88.05
1036.00,88.23
1024.00,89.06
1012.00,89.32
1000.00,89.77
988.00,90.21
976.00,90.86
964.00,90.21
952.00,89.87
940.00,87.01
928.00,86.31
916.00,88.90
904.00,88.84
892.00,90.56
880.00,90.77
868.00,91.07
856.00,90.86
844.00,90.31
832.00,90.42
820.00,90.13
808.00,89.38
796.00,88.18
784.00,87.70
772.00,86.55
760.00,84.91
748.00,83.51
736.00,79.77
724.00,75.69
712.00,75.30
700.00,72.87
688.00,69.10
676.00,69.08
664.00,71.52
652.00,74.27
640.00,75.63
628.00,76.52
616.00,76.05
604.00,75.56
592.00,72.80
580.00,65.58
568.00,68.14
556.00,72.30
550.00,72.81

File: Nylon - 15.csv
Created as New Dataset,87. BASF
cm-1,%T
4000.00,101.47
3988.00,101.51
3976.00,101.50
3964.00,101.54
3952.00,101.52
3940.00,101.60
3928.00,101.57
3916.00,101.50
3904.00,101.60
3892.00,101.53
3880.00,101.58
3868.00,101.60
3856.00,101.59
3844.00,101.54
3832.00,101.51
3820.00,101.48
3808.00,101.45
3796.00,101.47
3784.00,101.39
3772.00,101.32
3760.00,101.45
3748.00,101.48
3736.00,101.46
3724.00,101.35
3712.00,101.31
3700.00,101.23
3688.00,101.25
3676.00,101.30
3664.00,101.22
3652.00,101.12
3640.00,101.11
3628.00,101.19
3616.00,101.06
3604.00,101.02
3592.00,100.95
3580.00,100.88
3568.00,100.87
3556.00,100.80
3544.00,100.79
3532.00,100.59
3520.00,100.54
3508.00,100.52
3496.00,100.42
3484.00,100.33
3472.00,100.31
3460.00,100.25
3448.00,100.26
3436.00,100.16
3424.00,100.18
3412.00,100.11
3400.00,100.04
3388.00,99.94
3376.00,99.77
3364.00,99.50
3352.00,99.08
3340.00,98.28
3328.00,97.06
3316.00,95.13
3304.00,92.74
3292.00,92.19
3280.00,93.95
3268.00,95.33
3256.00,96.51
3244.00,97.54
3232.00,98.16
3220.00,98.58
3208.00,98.79
3196.00,98.95
3184.00,99.17
3172.00,99.47
3160.00,99.78
3148.00,99.89
3136.00,99.97
3124.00,99.86
3112.00,99.71
3100.00,99.42
3088.00,99.19
3076.00,99.07
3064.00,99.12
3052.00,99.40
3040.00,99.84
3028.00,100.15
3016.00,100.27
3004.00,100.28
2992.00,100.20
2980.00,99.89
2968.00,98.91
2956.00,97.39
2944.00,94.52
2932.00,93.58
2920.00,94.29
2908.00,96.01
2896.00,96.78
2884.00,97.39
2872.00,95.83
2860.00,95.39
2848.00,96.56
2836.00,98.97
2824.00,99.46
2812.00,99.71
2800.00,99.92
2788.00,100.04
2776.00,100.14
2764.00,100.19
2752.00,100.23
2740.00,100.20
2728.00,100.28
2716.00,100.35
2704.00,100.42
2692.00,100.41
2680.00,100.42
2668.00,100.42
2656.00,100.40
2644.00,100.32
2632.00,100.25
2620.00,100.23
2608.00,100.18
2596.00,100.11
2584.00,100.03
2572.00,100.06
2560.00,100.05
2548.00,100.02
2536.00,99.97
2524.00,99.99
2512.00,100.06
2500.00,100.06
2488.00,100.05
2476.00,99.99
2464.00,100.04
2452.00,100.01
2440.00,100.13
2428.00,100.10
2416.00,100.11
2404.00,100.17
2392.00,100.22
2380.00,100.28
2368.00,100.40
2356.00,100.37
2344.00,100.30
2332.00,100.32
2320.00,100.04
2308.00,100.08
2296.00,99.88
2284.00,99.63
2272.00,99.53
2260.00,99.40
2248.00,99.26
2236.00,99.12
2224.00,99.02
2212.00,99.02
2200.00,98.69
2188.00,98.47
2176.00,98.46
2164.00,98.00
2152.00,98.61
2140.00,98.89
2128.00,99.36
2116.00,99.37
2104.00,99.31
2092.00,99.43
2080.00,99.34
2068.00,99.09
2056.00,98.93
2044.00,98.50
2032.00,98.39
2020.00,98.49
2008.00,98.63
1996.00,98.65
1984.00,98.48
1972.00,98.56
1960.00,98.88
1948.00,99.11
1936.00,99.43
1924.00,99.42
1912.00,99.59
1900.00,99.74
1888.00,99.83
1876.00,99.84
1864.00,99.89
1852.00,99.92
1840.00,99.97
1828.00,100.04
1816.00,100.04
1804.00,100.08
1792.00,100.15
1780.00,100.10
1768.00,100.09
1756.00,99.89
1744.00,99.71
1732.00,99.55
1720.00,99.65
1708.00,99.67
1696.00,99.82
1684.00,99.06
1672.00,96.50
1660.00,92.12
1648.00,87.30
1636.00,80.83
1624.00,83.79
1612.00,89.33
1600.00,93.57
1588.00,95.03
1576.00,94.11
1564.00,90.96
1552.00,87.47
1540.00,84.03
1528.00,85.86
1516.00,89.95
1504.00,93.31
1492.00,94.86
1480.00,92.76
1468.00,92.26
1456.00,92.14
1444.00,92.79
1432.00,92.84
1420.00,91.95
1408.00,93.48
1396.00,95.00
1384.00,94.01
1372.00,92.61
1360.00,93.08
1348.00,93.98
1336.00,94.41
1324.00,94.84
1312.00,94.57
1300.00,94.21
1288.00,93.87
1276.00,93.32
1264.00,91.09
1252.00,92.21
1240.00,92.83
1228.00,94.31
1216.00,94.02
1204.00,92.85
1192.00,93.78
1180.00,94.67
1168.00,93.09
1156.00,95.15
1144.00,95.98
1132.00,96.03
1120.00,94.93
1108.00,95.07
1096.00,95.74
1084.00,95.87
1072.00,95.71
1060.00,96.15
1048.00,96.61
1036.00,96.57
1024.00,96.49
1012.00,96.84
1000.00,96.85
988.00,96.60
976.00,96.22
964.00,95.91
952.00,95.82
940.00,96.62
928.00,96.07
916.00,96.67
904.00,96.91
892.00,97.02
880.00,96.97
868.00,97.06
856.00,97.00
844.00,96.93
832.00,96.16
820.00,96.60
808.00,96.27
796.00,95.94
784.00,95.52
772.00,95.05
760.00,94.52
748.00,93.56
736.00,92.15
724.00,90.40
712.00,89.88
700.00,88.53
688.00,86.24
676.00,86.35
664.00,87.59
652.00,88.97
640.00,89.42
628.00,89.90
616.00,89.32
604.00,89.78
592.00,87.80
580.00,87.00
568.00,85.39
556.00,87.49
550.00,86.09

File: Nylon - 17.csv
Created as New Dataset,91 Du Pont
cm-1,%T
4000.00,99.43
3988.00,99.43
3976.00,99.41
3964.00,99.44
3952.00,99.45
3940.00,99.41
3928.00,99.41
3916.00,99.44
3904.00,99.43
3892.00,99.39
3880.00,99.38
3868.00,99.40
3856.00,99.48
3844.00,99.45
3832.00,99.32
3820.00,99.33
3808.00,99.36
3796.00,99.30
3784.00,99.24
3772.00,99.30
3760.00,99.20
3748.00,99.20
3736.00,99.14
3724.00,99.02
3712.00,99.12
3700.00,99.09
3688.00,98.99
3676.00,98.91
3664.00,98.92
3652.00,98.92
3640.00,98.89
3628.00,98.85
3616.00,98.70
3604.00,98.68
3592.00,98.66
3580.00,98.60
3568.00,98.42
3556.00,98.33
3544.00,98.25
3532.00,98.15
3520.00,97.95
3508.00,97.84
3496.00,97.78
3484.00,97.69
3472.00,97.63
3460.00,97.57
3448.00,97.50
3436.00,97.48
3424.00,97.39
3412.00,97.31
3400.00,97.14
3388.00,96.99
3376.00,96.70
3364.00,96.24
3352.00,95.57
3340.00,94.34
3328.00,92.41
3316.00,89.12
3304.00,85.26
3292.00,84.80
3280.00,86.73
3268.00,88.69
3256.00,90.77
3244.00,92.53
3232.00,93.84
3220.00,94.63
3208.00,95.00
3196.00,95.31
3184.00,95.78
3172.00,96.31
3160.00,96.78
3148.00,96.94
3136.00,97.06
3124.00,96.93
3112.00,96.60
3100.00,96.06
3088.00,95.58
3076.00,95.48
3064.00,95.74
3052.00,96.36
3040.00,97.09
3028.00,97.50
3016.00,97.69
3004.00,97.71
2992.00,97.60
2980.00,96.92
2968.00,95.38
2956.00,92.93
2944.00,88.52
2932.00,86.01
2920.00,88.41
2908.00,90.76
2896.00,93.02
2884.00,93.31
2872.00,91.08
2860.00,89.55
2848.00,93.06
2836.00,96.00
2824.00,96.64
2812.00,97.09
2800.00,97.35
2788.00,97.57
2776.00,97.72
2764.00,97.81
2752.00,97.84
2740.00,97.91
2728.00,98.02
2716.00,98.15
2704.00,98.16
2692.00,98.20
2680.00,98.24
2668.00,98.28
2656.00,98.25
2644.00,98.13
2632.00,98.04
2620.00,97.98
2608.00,97.86
2596.00,97.79
2584.00,97.69
2572.00,97.70
2560.00,97.71
2548.00,97.71
2536.00,97.74
2524.00,97.69
2512.00,97.73
2500.00,97.71
2488.00,97.81
2476.00,97.74
2464.00,97.76
2452.00,97.81
2440.00,97.82
2428.00,97.90
2416.00,97.96
2404.00,97.99
2392.00,98.04
2380.00,98.48
2368.00,98.56
2356.00,98.50
2344.00,98.55
2332.00,98.49
2320.00,98.27
2308.00,98.08
2296.00,97.73
2284.00,97.35
2272.00,97.17
2260.00,96.88
2248.00,96.79
2236.00,96.56
2224.00,96.35
2212.00,96.13
2200.00,95.86
2188.00,95.48
2176.00,95.48
2164.00,94.88
2152.00,95.80
2140.00,96.36
2128.00,96.92
2116.00,96.96
2104.00,96.98
2092.00,96.94
2080.00,96.83
2068.00,96.65
2056.00,96.41
2044.00,95.72
2032.00,95.42
2020.00,95.36
2008.00,95.82
1996.00,96.11
1984.00,95.81
1972.00,95.91
1960.00,96.28
1948.00,96.72
1936.00,97.09
1924.00,97.31
1912.00,97.48
1900.00,97.65
1888.00,97.76
1876.00,97.82
1864.00,97.92
1852.00,97.99
1840.00,98.09
1828.00,98.20
1816.00,98.30
1804.00,98.33
1792.00,98.36
1780.00,98.35
1768.00,98.30
1756.00,98.12
1744.00,97.85
1732.00,97.64
1720.00,97.74
1708.00,97.67
1696.00,97.62
1684.00,96.32
1672.00,92.89
1660.00,86.87
1648.00,78.67
1636.00,68.93
1624.00,72.55
1612.00,81.70
1600.00,87.98
1588.00,90.09
1576.00,87.85
1564.00,83.06
1552.00,77.57
1540.00,70.77
1528.00,69.25
1516.00,77.32
1504.00,83.94
1492.00,87.70
1480.00,85.90
1468.00,83.35
1456.00,84.52
1444.00,85.94
1432.00,85.83
1420.00,84.89
1408.00,88.25
1396.00,89.68
1384.00,87.91
1372.00,84.89
1360.00,86.24
1348.00,88.18
1336.00,89.26
1324.00,89.58
1312.00,89.42
1300.00,88.32
1288.00,87.32
1276.00,81.98
1264.00,83.02
1252.00,85.52
1240.00,86.73
1228.00,88.05
1216.00,89.27
1204.00,86.43
1192.00,85.44
1180.00,86.32
1168.00,89.78
1156.00,90.03
1144.00,88.66
1132.00,90.25
1120.00,91.46
1108.00,91.69
1096.00,91.76
1084.00,92.28
1072.00,92.42
1060.00,92.12
1048.00,92.24
1036.00,92.32
1024.00,93.03
1012.00,93.01
1000.00,93.46
988.00,93.68
976.00,94.15
964.00,94.12
952.00,93.67
940.00,91.08
928.00,90.68
916.00,92.63
904.00,92.51
892.00,93.76
880.00,93.92
868.00,94.13
856.00,94.10
844.00,93.92
832.00,93.76
820.00,93.46
808.00,92.95
796.00,92.18
784.00,91.85
772.00,91.07
760.00,90.03
748.00,88.85
736.00,86.40
724.00,83.44
712.00,83.00
700.00,81.23
688.00,78.38
676.00,78.43
664.00,80.48
652.00,82.16
640.00,83.55
628.00,84.05
616.00,84.50
604.00,83.43
592.00,81.65
580.00,76.45
568.00,77.59
556.00,79.48
550.00,81.49