Folder: FasTEX-KCL/raw_csv_data (part 4)

File: Nylon - 19.csv
Created as New Dataset,94. Du Pont
cm-1,%T
4000.00,99.82
3988.00,99.81
3976.00,99.82
3964.00,99.83
3952.00,99.84
3940.00,99.81
3928.00,99.82
3916.00,99.82
3904.00,99.83
3892.00,99.82
3880.00,99.77
3868.00,99.79
3856.00,99.81
3844.00,99.79
3832.00,99.72
3820.00,99.75
3808.00,99.72
3796.00,99.71
3784.00,99.65
3772.00,99.69
3760.00,99.62
3748.00,99.53
3736.00,99.67
3724.00,99.61
3712.00,99.51
3700.00,99.55
3688.00,99.44
3676.00,99.34
3664.00,99.38
3652.00,99.37
3640.00,99.30
3628.00,99.32
3616.00,99.16
3604.00,99.14
3592.00,99.17
3580.00,98.96
3568.00,98.90
3556.00,98.74
3544.00,98.65
3532.00,98.50
3520.00,98.25
3508.00,98.17
3496.00,98.05
3484.00,97.98
3472.00,97.90
3460.00,97.87
3448.00,97.82
3436.00,97.77
3424.00,97.76
3412.00,97.60
3400.00,97.54
3388.00,97.38
3376.00,97.14
3364.00,96.69
3352.00,96.03
3340.00,94.79
3328.00,92.76
3316.00,88.56
3304.00,82.84
3292.00,83.07
3280.00,86.76
3268.00,89.21
3256.00,91.15
3244.00,92.77
3232.00,93.94
3220.00,94.67
3208.00,95.08
3196.00,95.35
3184.00,95.77
3172.00,96.25
3160.00,96.79
3148.00,96.98
3136.00,97.13
3124.00,97.07
3112.00,96.81
3100.00,96.35
3088.00,95.94
3076.00,95.78
3064.00,95.73
3052.00,96.20
3040.00,97.08
3028.00,97.56
3016.00,97.78
3004.00,97.84
2992.00,97.84
2980.00,97.29
2968.00,95.87
2956.00,93.40
2944.00,88.20
2932.00,85.23
2920.00,88.04
2908.00,90.51
2896.00,93.01
2884.00,93.27
2872.00,90.77
2860.00,89.23
2848.00,92.77
2836.00,95.64
2824.00,96.28
2812.00,96.73
2800.00,97.05
2788.00,97.28
2776.00,97.40
2764.00,97.48
2752.00,97.54
2740.00,97.58
2728.00,97.72
2716.00,97.88
2704.00,97.92
2692.00,97.93
2680.00,97.97
2668.00,98.01
2656.00,97.95
2644.00,97.88
2632.00,97.83
2620.00,97.75
2608.00,97.68
2596.00,97.61
2584.00,97.58
2572.00,97.53
2560.00,97.59
2548.00,97.60
2536.00,97.62
2524.00,97.56
2512.00,97.54
2500.00,97.59
2488.00,97.62
2476.00,97.60
2464.00,97.61
2452.00,97.67
2440.00,97.65
2428.00,97.74
2416.00,97.77
2404.00,97.80
2392.00,97.79
2380.00,98.09
2368.00,98.37
2356.00,98.29
2344.00,98.41
2332.00,98.32
2320.00,98.03
2308.00,97.82
2296.00,97.56
2284.00,97.20
2272.00,97.08
2260.00,96.84
2248.00,96.86
2236.00,96.70
2224.00,96.50
2212.00,96.47
2200.00,96.12
2188.00,96.04
2176.00,95.88
2164.00,95.42
2152.00,96.22
2140.00,96.51
2128.00,96.86
2116.00,96.93
2104.00,97.07
2092.00,97.00
2080.00,96.83
2068.00,96.68
2056.00,96.56
2044.00,96.18
2032.00,95.86
2020.00,95.93
2008.00,96.09
1996.00,96.43
1984.00,96.17
1972.00,96.26
1960.00,96.60
1948.00,96.85
1936.00,97.15
1924.00,97.27
1912.00,97.43
1900.00,97.53
1888.00,97.68
1876.00,97.74
1864.00,97.79
1852.00,97.89
1840.00,97.97
1828.00,98.07
1816.00,98.14
1804.00,98.20
1792.00,98.19
1780.00,98.27
1768.00,98.23
1756.00,98.12
1744.00,97.80
1732.00,97.69
1720.00,97.82
1708.00,97.83
1696.00,97.82
1684.00,96.80
1672.00,93.60
1660.00,86.80
1648.00,77.78
1636.00,64.86
1624.00,66.59
1612.00,78.12
1600.00,85.78
1588.00,88.87
1576.00,87.39
1564.00,82.62
1552.00,76.78
1540.00,68.14
1528.00,65.98
1516.00,76.00
1504.00,83.05
1492.00,86.84
1480.00,84.42
1468.00,81.44
1456.00,83.13
1444.00,84.73
1432.00,84.91
1420.00,82.86
1408.00,86.32
1396.00,88.26
1384.00,86.53
1372.00,83.15
1360.00,84.50
1348.00,86.41
1336.00,87.68
1324.00,88.18
1312.00,88.17
1300.00,87.25
1288.00,86.08
1276.00,79.71
1264.00,81.56
1252.00,84.01
1240.00,85.46
1228.00,86.82
1216.00,88.12
1204.00,85.50
1192.00,83.74
1180.00,84.88
1168.00,88.44
1156.00,89.20
1144.00,87.61
1132.00,89.29
1120.00,90.72
1108.00,90.98
1096.00,91.13
1084.00,91.51
1072.00,91.68
1060.00,91.07
1048.00,91.24
1036.00,91.23
1024.00,91.99
1012.00,91.89
1000.00,92.45
988.00,92.68
976.00,93.24
964.00,93.33
952.00,92.86
940.00,90.06
928.00,88.98
916.00,91.68
904.00,91.15
892.00,92.90
880.00,93.09
868.00,93.41
856.00,93.31
844.00,93.15
832.00,92.97
820.00,92.73
808.00,92.27
796.00,91.29
784.00,91.14
772.00,90.33
760.00,89.15
748.00,88.05
736.00,84.85
724.00,81.33
712.00,80.85
700.00,78.21
688.00,72.20
676.00,72.95
664.00,76.01
652.00,78.88
640.00,80.52
628.00,81.00
616.00,81.74
604.00,80.50
592.00,78.42
580.00,70.26
568.00,72.88
556.00,75.41
550.00,77.32