Folder: FasTEX-KCL/raw_csv_data (part 2)

File: Nylon - 5.csv
Created as New Dataset,78 Nylon Allied Signal Fibers
cm-1,%T
4000.00,99.25
3988.00,99.29
3976.00,99.27
3964.00,99.28
3952.00,99.24
3940.00,99.27
3928.00,99.26
3916.00,99.23
3904.00,99.22
3892.00,99.23
3880.00,99.21
3868.00,99.17
3856.00,99.16
3844.00,99.19
3832.00,99.08
3820.00,99.24
3808.00,99.10
3796.00,99.09
3784.00,99.07
3772.00,99.12
3760.00,99.12
3748.00,99.03
3736.00,99.10
3724.00,99.06
3712.00,99.07
3700.00,99.01
3688.00,98.89
3676.00,98.89
3664.00,98.94
3652.00,98.92
3640.00,98.94
3628.00,98.90
3616.00,98.81
3604.00,98.76
3592.00,98.72
3580.00,98.62
3568.00,98.58
3556.00,98.47
3544.00,98.41
3532.00,98.28
3520.00,98.14
3508.00,98.11
3496.00,97.99
3484.00,97.97
3472.00,97.89
3460.00,97.78
3448.00,97.69
3436.00,97.67
3424.00,97.58
3412.00,97.44
3400.00,97.28
3388.00,97.14
3376.00,97.00
3364.00,96.72
3352.00,96.31
3340.00,95.63
3328.00,94.58
3316.00,93.04
3304.00,90.92
3292.00,90.40
3280.00,92.09
3268.00,93.27
3256.00,94.37
3244.00,95.17
3232.00,95.85
3220.00,96.15
3208.00,96.40
3196.00,96.60
3184.00,96.77
3172.00,97.09
3160.00,97.35
3148.00,97.52
3136.00,97.61
3124.00,97.62
3112.00,97.42
3100.00,97.22
3088.00,97.00
3076.00,96.95
3064.00,96.96
3052.00,97.23
3040.00,97.65
3028.00,97.87
3016.00,98.00
3004.00,98.08
2992.00,98.00
2980.00,97.60
2968.00,96.72
2956.00,95.35
2944.00,92.79
2932.00,92.07
2920.00,93.08
2908.00,94.38
2896.00,95.01
2884.00,95.52
2872.00,94.19
2860.00,93.96
2848.00,95.26
2836.00,97.08
2824.00,97.44
2812.00,97.65
2800.00,97.84
2788.00,97.89
2776.00,98.01
2764.00,98.08
2752.00,98.07
2740.00,98.09
2728.00,98.17
2716.00,98.22
2704.00,98.25
2692.00,98.27
2680.00,98.30
2668.00,98.32
2656.00,98.29
2644.00,98.22
2632.00,98.20
2620.00,98.17
2608.00,98.14
2596.00,98.16
2584.00,98.12
2572.00,98.08
2560.00,98.07
2548.00,98.12
2536.00,98.06
2524.00,98.17
2512.00,98.15
2500.00,98.15
2488.00,98.17
2476.00,98.16
2464.00,98.11
2452.00,98.08
2440.00,98.09
2428.00,98.14
2416.00,98.19
2404.00,98.17
2392.00,98.26
2380.00,98.32
2368.00,98.42
2356.00,98.46
2344.00,98.48
2332.00,98.50
2320.00,98.09
2308.00,98.17
2296.00,98.13
2284.00,97.97
2272.00,97.93
2260.00,97.88
2248.00,97.82
2236.00,97.67
2224.00,97.78
2212.00,97.53
2200.00,97.50
2188.00,97.52
2176.00,97.39
2164.00,97.36
2152.00,97.43
2140.00,97.72
2128.00,97.77
2116.00,97.82
2104.00,97.79
2092.00,97.75
2080.00,97.74
2068.00,97.64
2056.00,97.80
2044.00,97.40
2032.00,97.34
2020.00,97.50
2008.00,97.45
1996.00,97.67
1984.00,97.51
1972.00,97.63
1960.00,97.72
1948.00,97.78
1936.00,97.90
1924.00,97.89
1912.00,97.95
1900.00,98.02
1888.00,97.97
1876.00,97.99
1864.00,98.07
1852.00,98.12
1840.00,98.16
1828.00,98.15
1816.00,98.19
1804.00,98.16
1792.00,98.20
1780.00,98.17
1768.00,98.15
1756.00,98.04
1744.00,97.89
1732.00,97.74
1720.00,97.70
1708.00,97.66
1696.00,97.45
1684.00,96.51
1672.00,94.53
1660.00,91.10
1648.00,87.41
1636.00,82.94
1624.00,85.66
1612.00,90.02
1600.00,93.32
1588.00,94.25
1576.00,93.18
1564.00,91.00
1552.00,88.09
1540.00,84.38
1528.00,85.67
1516.00,88.82
1504.00,91.58
1492.00,93.36
1480.00,91.81
1468.00,91.50
1456.00,91.44
1444.00,91.93
1432.00,91.91
1420.00,91.33
1408.00,92.81
1396.00,94.09
1384.00,93.21
1372.00,91.72
1360.00,92.50
1348.00,93.25
1336.00,93.60
1324.00,93.97
1312.00,93.77
1300.00,93.47
1288.00,93.11
1276.00,92.64
1264.00,90.39
1252.00,91.71
1240.00,92.21
1228.00,93.48
1216.00,93.45
1204.00,92.39
1192.00,93.02
1180.00,94.05
1168.00,92.66
1156.00,94.09
1144.00,95.01
1132.00,95.14
1120.00,94.08
1108.00,94.11
1096.00,94.72
1084.00,94.79
1072.00,94.46
1060.00,94.43
1048.00,94.83
1036.00,94.65
1024.00,94.53
1012.00,94.94
1000.00,95.09
988.00,95.06
976.00,95.10
964.00,95.08
952.00,95.13
940.00,95.82
928.00,95.24
916.00,96.12
904.00,96.27
892.00,96.29
880.00,96.46
868.00,96.59
856.00,96.58
844.00,96.62
832.00,96.03
820.00,96.38
808.00,96.26
796.00,96.00
784.00,95.65
772.00,95.34
760.00,94.98
748.00,94.45
736.00,93.30
724.00,92.05
712.00,91.55
700.00,90.55
688.00,89.04
676.00,88.99
664.00,89.95
652.00,90.98
640.00,91.51
628.00,91.68
616.00,91.50
604.00,91.84
592.00,91.34
580.00,89.76
568.00,89.44
556.00,88.80
550.00,90.62

File: Nylon - 6.csv
Created as New Dataset,74 Nylon Allied Signal Fibers
cm-1,%T
4000.00,102.37
3988.00,102.21
3976.00,102.26
3964.00,102.27
3952.00,102.28
3940.00,102.24
3928.00,102.22
3916.00,102.29
3904.00,102.16
3892.00,102.18
3880.00,102.13
3868.00,102.10
3856.00,102.00
3844.00,102.16
3832.00,102.12
3820.00,102.00
3808.00,102.08
3796.00,101.99
3784.00,102.05
3772.00,102.04
3760.00,101.99
3748.00,101.82
3736.00,101.93
3724.00,101.96
3712.00,101.89
3700.00,101.98
3688.00,101.90
3676.00,101.75
3664.00,101.91
3652.00,101.68
3640.00,101.85
3628.00,101.71
3616.00,101.64
3604.00,101.69
3592.00,101.54
3580.00,101.52
3568.00,101.27
3556.00,101.26
3544.00,101.11
3532.00,100.93
3520.00,100.72
3508.00,100.57
3496.00,100.50
3484.00,100.31
3472.00,100.31
3460.00,100.16
3448.00,100.11
3436.00,99.93
3424.00,99.95
3412.00,99.79
3400.00,99.59
3388.00,99.36
3376.00,98.91
3364.00,98.21
3352.00,97.29
3340.00,95.84
3328.00,94.07
3316.00,91.95
3304.00,89.80
3292.00,89.19
3280.00,90.04
3268.00,91.35
3256.00,92.97
3244.00,94.60
3232.00,96.06
3220.00,96.84
3208.00,97.35
3196.00,97.79
3184.00,98.36
3172.00,98.89
3160.00,99.30
3148.00,99.61
3136.00,99.69
3124.00,99.46
3112.00,99.09
3100.00,98.43
3088.00,97.89
3076.00,97.79
3064.00,98.17
3052.00,98.98
3040.00,99.60
3028.00,99.97
3016.00,100.16
3004.00,100.23
2992.00,99.98
2980.00,99.00
2968.00,97.11
2956.00,94.29
2944.00,90.34
2932.00,88.73
2920.00,90.55
2908.00,93.20
2896.00,94.74
2884.00,95.49
2872.00,93.42
2860.00,92.07
2848.00,95.30
2836.00,98.59
2824.00,99.32
2812.00,99.73
2800.00,100.05
2788.00,100.17
2776.00,100.35
2764.00,100.45
2752.00,100.47
2740.00,100.52
2728.00,100.60
2716.00,100.66
2704.00,100.68
2692.00,100.75
2680.00,100.80
2668.00,100.78
2656.00,100.69
2644.00,100.66
2632.00,100.65
2620.00,100.64
2608.00,100.64
2596.00,100.65
2584.00,100.66
2572.00,100.64
2560.00,100.68
2548.00,100.65
2536.00,100.65
2524.00,100.69
2512.00,100.75
2500.00,100.63
2488.00,100.75
2476.00,100.74
2464.00,100.71
2452.00,100.70
2440.00,100.70
2428.00,100.67
2416.00,100.73
2404.00,100.79
2392.00,100.80
2380.00,100.92
2368.00,100.98
2356.00,101.00
2344.00,100.97
2332.00,100.81
2320.00,100.55
2308.00,100.55
2296.00,100.40
2284.00,100.21
2272.00,100.31
2260.00,100.13
2248.00,100.07
2236.00,100.11
2224.00,99.93
2212.00,99.83
2200.00,99.73
2188.00,99.73
2176.00,99.80
2164.00,99.13
2152.00,99.99
2140.00,100.16
2128.00,100.38
2116.00,100.15
2104.00,100.11
2092.00,100.10
2080.00,100.11
2068.00,99.86
2056.00,100.08
2044.00,99.72
2032.00,99.74
2020.00,99.83
2008.00,100.05
1996.00,99.91
1984.00,99.58
1972.00,99.87
1960.00,100.06
1948.00,100.11
1936.00,100.16
1924.00,100.25
1912.00,100.26
1900.00,100.26
1888.00,100.32
1876.00,100.26
1864.00,100.29
1852.00,100.30
1840.00,100.34
1828.00,100.26
1816.00,100.39
1804.00,100.29
1792.00,100.25
1780.00,100.20
1768.00,100.15
1756.00,99.99
1744.00,99.77
1732.00,99.63
1720.00,99.56
1708.00,99.42
1696.00,99.10
1684.00,96.64
1672.00,91.97
1660.00,85.75
1648.00,78.71
1636.00,72.28
1624.00,75.59
1612.00,84.49
1600.00,90.97
1588.00,92.39
1576.00,89.61
1564.00,83.90
1552.00,78.67
1540.00,75.08
1528.00,77.32
1516.00,83.07
1504.00,88.32
1492.00,91.57
1480.00,90.12
1468.00,88.03
1456.00,87.79
1444.00,88.53
1432.00,88.27
1420.00,88.75
1408.00,91.92
1396.00,93.57
1384.00,91.77
1372.00,89.60
1360.00,90.53
1348.00,91.92
1336.00,92.57
1324.00,93.00
1312.00,92.35
1300.00,91.78
1288.00,91.35
1276.00,90.42
1264.00,88.19
1252.00,88.91
1240.00,89.44
1228.00,91.71
1216.00,92.21
1204.00,90.71
1192.00,92.31
1180.00,93.28
1168.00,90.30
1156.00,94.21
1144.00,95.98
1132.00,96.19
1120.00,93.80
1108.00,94.37
1096.00,95.54
1084.00,95.56
1072.00,95.19
1060.00,95.94
1048.00,96.87
1036.00,96.96
1024.00,96.97
1012.00,97.23
1000.00,97.20
988.00,96.57
976.00,96.10
964.00,96.16
952.00,96.41
940.00,97.12
928.00,96.88
916.00,97.31
904.00,97.53
892.00,97.64
880.00,97.84
868.00,97.88
856.00,97.87
844.00,97.48
832.00,96.95
820.00,97.21
808.00,96.68
796.00,96.23
784.00,95.27
772.00,94.61
760.00,93.81
748.00,92.59
736.00,90.19
724.00,88.32
712.00,88.05
700.00,87.32
688.00,86.20
676.00,86.23
664.00,87.24
652.00,88.24
640.00,89.20
628.00,89.57
616.00,89.34
604.00,88.81
592.00,88.42
580.00,85.87
568.00,86.56
556.00,87.75
550.00,88.58

File: Nylon - 7.csv
Created as New Dataset,75 Nylon Allied Signal Fibers
cm-1,%T
4000.00,101.37
3988.00,101.39
3976.00,101.35
3964.00,101.41
3952.00,101.44
3940.00,101.44
3928.00,101.44
3916.00,101.45
3904.00,101.43
3892.00,101.40
3880.00,101.35
3868.00,101.42
3856.00,101.62
3844.00,101.37
3832.00,101.38
3820.00,101.47
3808.00,101.39
3796.00,101.33
3784.00,101.35
3772.00,101.30
3760.00,101.34
3748.00,101.38
3736.00,101.45
3724.00,101.29
3712.00,101.38
3700.00,101.27
3688.00,101.38
3676.00,101.32
3664.00,101.23
3652.00,101.30
3640.00,101.19
3628.00,101.23
3616.00,101.22
3604.00,101.10
3592.00,101.04
3580.00,101.01
3568.00,100.98
3556.00,100.82
3544.00,100.74
3532.00,100.67
3520.00,100.57
3508.00,100.50
3496.00,100.41
3484.00,100.37
3472.00,100.35
3460.00,100.32
3448.00,100.23
3436.00,100.22
3424.00,100.19
3412.00,100.13
3400.00,100.04
3388.00,99.90
3376.00,99.70
3364.00,99.39
3352.00,98.99
3340.00,98.30
3328.00,97.49
3316.00,96.41
3304.00,95.24
3292.00,94.79
3280.00,95.18
3268.00,95.83
3256.00,96.61
3244.00,97.50
3232.00,98.15
3220.00,98.58
3208.00,98.87
3196.00,99.05
3184.00,99.30
3172.00,99.61
3160.00,99.83
3148.00,99.94
3136.00,99.95
3124.00,99.91
3112.00,99.75
3100.00,99.38
3088.00,99.11
3076.00,99.06
3064.00,99.25
3052.00,99.62
3040.00,99.91
3028.00,100.19
3016.00,100.26
3004.00,100.28
2992.00,100.16
2980.00,99.82
2968.00,98.91
2956.00,97.46
2944.00,95.68
2932.00,94.75
2920.00,95.44
2908.00,96.72
2896.00,97.54
2884.00,97.94
2872.00,96.91
2860.00,96.16
2848.00,97.61
2836.00,99.34
2824.00,99.80
2812.00,99.95
2800.00,100.13
2788.00,100.17
2776.00,100.31
2764.00,100.34
2752.00,100.37
2740.00,100.39
2728.00,100.41
2716.00,100.47
2704.00,100.50
2692.00,100.52
2680.00,100.53
2668.00,100.50
2656.00,100.52
2644.00,100.44
2632.00,100.44
2620.00,100.46
2608.00,100.44
2596.00,100.44
2584.00,100.48
2572.00,100.46
2560.00,100.43
2548.00,100.44
2536.00,100.44
2524.00,100.41
2512.00,100.46
2500.00,100.47
2488.00,100.42
2476.00,100.40
2464.00,100.41
2452.00,100.40
2440.00,100.46
2428.00,100.53
2416.00,100.44
2404.00,100.52
2392.00,100.52
2380.00,100.54
2368.00,100.60
2356.00,100.55
2344.00,100.81
2332.00,100.49
2320.00,100.35
2308.00,100.33
2296.00,100.31
2284.00,100.24
2272.00,100.24
2260.00,100.29
2248.00,100.18
2236.00,100.12
2224.00,100.13
2212.00,99.96
2200.00,100.00
2188.00,100.19
2176.00,99.87
2164.00,99.74
2152.00,100.14
2140.00,100.24
2128.00,100.25
2116.00,100.16
2104.00,100.00
2092.00,100.22
2080.00,100.18
2068.00,100.14
2056.00,100.09
2044.00,99.86
2032.00,100.04
2020.00,99.99
2008.00,100.03
1996.00,100.08
1984.00,99.77
1972.00,99.95
1960.00,100.09
1948.00,100.19
1936.00,100.09
1924.00,100.24
1912.00,100.26
1900.00,100.24
1888.00,100.22
1876.00,100.20
1864.00,100.16
1852.00,100.24
1840.00,100.25
1828.00,100.24
1816.00,100.27
1804.00,100.28
1792.00,100.25
1780.00,100.20
1768.00,100.25
1756.00,100.09
1744.00,99.99
1732.00,99.94
1720.00,99.94
1708.00,99.81
1696.00,99.60
1684.00,98.54
1672.00,96.31
1660.00,93.20
1648.00,89.59
1636.00,85.95
1624.00,87.13
1612.00,91.19
1600.00,94.84
1588.00,95.88
1576.00,94.50
1564.00,91.71
1552.00,89.17
1540.00,87.47
1528.00,88.29
1516.00,91.02
1504.00,93.66
1492.00,95.28
1480.00,94.52
1468.00,93.53
1456.00,93.36
1444.00,93.75
1432.00,93.60
1420.00,93.72
1408.00,95.33
1396.00,96.48
1384.00,95.55
1372.00,94.34
1360.00,94.81
1348.00,95.52
1336.00,95.95
1324.00,96.20
1312.00,95.88
1300.00,95.56
1288.00,95.33
1276.00,94.88
1264.00,93.75
1252.00,94.03
1240.00,94.37
1228.00,95.62
1216.00,95.92
1204.00,95.05
1192.00,95.68
1180.00,96.27
1168.00,94.56
1156.00,96.84
1144.00,97.87
1132.00,97.99
1120.00,96.76
1108.00,96.97
1096.00,97.69
1084.00,97.76
1072.00,97.55
1060.00,98.06
1048.00,98.53
1036.00,98.62
1024.00,98.62
1012.00,98.83
1000.00,98.83
988.00,98.50
976.00,98.22
964.00,98.25
952.00,98.48
940.00,98.90
928.00,98.69
916.00,99.04
904.00,99.29
892.00,99.27
880.00,99.39
868.00,99.50
856.00,99.47
844.00,99.35
832.00,98.88
820.00,99.07
808.00,98.91
796.00,98.50
784.00,98.06
772.00,97.56
760.00,97.13
748.00,96.46
736.00,95.14
724.00,93.86
712.00,93.70
700.00,93.23
688.00,92.39
676.00,92.30
664.00,92.71
652.00,93.82
640.00,94.19
628.00,94.22
616.00,94.19
604.00,93.97
592.00,92.96
580.00,91.20
568.00,90.70
556.00,92.57
550.00,95.60

File: Nylon - 8.csv
Created as New Dataset,76 Nylon Allied Signal Fibers USA PA-6. 2-ply cabled and autoclave heat set yarn. 3 of 7 in a series of fiber processing techniques
cm-1,%T
4000.00,102.88
3988.00,102.91
3976.00,102.89
3964.00,102.89
3952.00,102.88
3940.00,102.91
3928.00,102.85
3916.00,102.86
3904.00,102.81
3892.00,102.84
3880.00,102.82
3868.00,102.76
3856.00,102.76
3844.00,102.87
3832.00,102.77
3820.00,102.76
3808.00,102.79
3796.00,102.80
3784.00,102.75
3772.00,102.80
3760.00,102.80
3748.00,102.65
3736.00,102.74
3724.00,102.83
3712.00,102.71
3700.00,102.82
3688.00,102.70
3676.00,102.73
3664.00,102.81
3652.00,102.66
3640.00,102.67
3628.00,102.52
3616.00,102.59
3604.00,102.50
3592.00,102.46
3580.00,102.47
3568.00,102.29
3556.00,102.24
3544.00,102.15
3532.00,102.04
3520.00,101.90
3508.00,101.86
3496.00,101.74
3484.00,101.70
3472.00,101.68
3460.00,101.59
3448.00,101.46
3436.00,101.47
3424.00,101.37
3412.00,101.29
3400.00,101.18
3388.00,101.00
3376.00,100.81
3364.00,100.33
3352.00,99.77
3340.00,98.85
3328.00,97.57
3316.00,95.99
3304.00,93.92
3292.00,93.52
3280.00,94.70
3268.00,95.83
3256.00,97.01
3244.00,98.15
3232.00,99.08
3220.00,99.59
3208.00,99.89
3196.00,100.11
3184.00,100.43
3172.00,100.80
3160.00,101.08
3148.00,101.21
3136.00,101.30
3124.00,101.22
3112.00,100.91
3100.00,100.64
3088.00,100.20
3076.00,100.13
3064.00,100.30
3052.00,100.74
3040.00,101.18
3028.00,101.50
3016.00,101.62
3004.00,101.62
2992.00,101.46
2980.00,100.90
2968.00,99.69
2956.00,97.78
2944.00,94.71
2932.00,93.69
2920.00,95.12
2908.00,96.86
2896.00,97.82
2884.00,98.45
2872.00,96.79
2860.00,96.16
2848.00,98.20
2836.00,100.48
2824.00,100.96
2812.00,101.24
2800.00,101.43
2788.00,101.53
2776.00,101.60
2764.00,101.64
2752.00,101.71
2740.00,101.77
2728.00,101.80
2716.00,101.84
2704.00,101.85
2692.00,101.92
2680.00,101.93
2668.00,101.97
2656.00,101.88
2644.00,101.98
2632.00,101.96
2620.00,102.02
2608.00,102.04
2596.00,102.08
2584.00,102.06
2572.00,102.15
2560.00,102.08
2548.00,102.16
2536.00,102.10
2524.00,102.13
2512.00,102.18
2500.00,102.16
2488.00,102.19
2476.00,102.17
2464.00,102.19
2452.00,102.11
2440.00,102.15
2428.00,102.17
2416.00,102.18
2404.00,102.13
2392.00,102.12
2380.00,102.10
2368.00,102.04
2356.00,101.92
2344.00,101.94
2332.00,101.81
2320.00,101.84
2308.00,101.90
2296.00,102.00
2284.00,102.04
2272.00,102.16
2260.00,102.17
2248.00,102.23
2236.00,102.39
2224.00,102.22
2212.00,102.34
2200.00,102.45
2188.00,102.31
2176.00,102.39
2164.00,102.35
2152.00,102.61
2140.00,102.31
2128.00,102.27
2116.00,101.99
2104.00,102.20
2092.00,102.16
2080.00,102.09
2068.00,102.28
2056.00,102.27
2044.00,102.38
2032.00,102.46
2020.00,102.42
2008.00,102.38
1996.00,102.49
1984.00,102.37
1972.00,102.20
1960.00,102.44
1948.00,102.31
1936.00,102.19
1924.00,102.15
1912.00,102.12
1900.00,102.01
1888.00,102.08
1876.00,102.04
1864.00,102.01
1852.00,102.04
1840.00,101.99
1828.00,102.02
1816.00,102.05
1804.00,102.02
1792.00,101.97
1780.00,101.90
1768.00,101.90
1756.00,101.81
1744.00,101.64
1732.00,101.44
1720.00,101.49
1708.00,101.45
1696.00,101.17
1684.00,99.77
1672.00,96.61
1660.00,92.05
1648.00,87.17
1636.00,82.29
1624.00,85.07
1612.00,91.37
1600.00,95.77
1588.00,96.87
1576.00,95.18
1564.00,91.60
1552.00,87.86
1540.00,84.17
1528.00,85.59
1516.00,89.86
1504.00,93.63
1492.00,96.07
1480.00,94.46
1468.00,93.61
1456.00,93.62
1444.00,94.31
1432.00,94.25
1420.00,94.20
1408.00,96.25
1396.00,97.61
1384.00,96.33
1372.00,94.66
1360.00,95.52
1348.00,96.45
1336.00,96.98
1324.00,97.37
1312.00,97.02
1300.00,96.54
1288.00,96.15
1276.00,95.65
1264.00,93.32
1252.00,94.45
1240.00,95.07
1228.00,96.79
1216.00,97.01
1204.00,95.62
1192.00,96.60
1180.00,97.67
1168.00,95.84
1156.00,98.52
1144.00,99.69
1132.00,99.76
1120.00,98.35
1108.00,98.68
1096.00,99.51
1084.00,99.57
1072.00,99.54
1060.00,99.95
1048.00,100.47
1036.00,100.60
1024.00,100.66
1012.00,100.89
1000.00,100.93
988.00,100.65
976.00,100.36
964.00,100.23
952.00,100.35
940.00,100.93
928.00,100.45
916.00,101.11
904.00,101.38
892.00,101.55
880.00,101.64
868.00,101.74
856.00,101.85
844.00,101.55
832.00,101.16
820.00,101.45
808.00,101.28
796.00,100.93
784.00,100.44
772.00,99.90
760.00,99.57
748.00,98.83
736.00,97.12
724.00,95.78
712.00,95.41
700.00,94.83
688.00,92.97
676.00,93.22
664.00,94.35
652.00,95.45
640.00,96.17
628.00,95.77
616.00,96.21
604.00,96.42
592.00,95.66
580.00,93.89
568.00,94.13
556.00,96.07
550.00,93.72

File: Nylon - 9.csv
Created as New Dataset,79. Nylon Allied Signal Fibers Dyed
cm-1,%T
4000.00,98.50
3988.00,98.46
3976.00,98.45
3964.00,98.46
3952.00,98.53
3940.00,98.53
3928.00,98.50
3916.00,98.48
3904.00,98.52
3892.00,98.54
3880.00,98.57
3868.00,98.57
3856.00,98.49
3844.00,98.59
3832.00,98.57
3820.00,98.59
3808.00,98.55
3796.00,98.52
3784.00,98.48
3772.00,98.56
3760.00,98.50
3748.00,98.48
3736.00,98.48
3724.00,98.43
3712.00,98.48
3700.00,98.49
3688.00,98.42
3676.00,98.40
3664.00,98.32
3652.00,98.37
3640.00,98.28
3628.00,98.26
3616.00,98.22
3604.00,98.12
3592.00,98.16
3580.00,98.04
3568.00,97.97
3556.00,97.79
3544.00,97.73
3532.00,97.73
3520.00,97.56
3508.00,97.45
3496.00,97.42
3484.00,97.35
3472.00,97.34
3460.00,97.29
3448.00,97.25
3436.00,97.24
3424.00,97.08
3412.00,97.03
3400.00,96.85
3388.00,96.71
3376.00,96.43
3364.00,96.11
3352.00,95.55
3340.00,94.63
3328.00,92.80
3316.00,90.08
3304.00,85.59
3292.00,83.67
3280.00,87.54
3268.00,90.21
3256.00,92.19
3244.00,93.59
3232.00,94.52
3220.00,95.08
3208.00,95.34
3196.00,95.56
3184.00,95.78
3172.00,96.26
3160.00,96.61
3148.00,96.82
3136.00,96.89
3124.00,96.82
3112.00,96.62
3100.00,96.25
3088.00,95.93
3076.00,95.68
3064.00,95.60
3052.00,96.01
3040.00,96.71
3028.00,97.12
3016.00,97.27
3004.00,97.27
2992.00,97.10
2980.00,96.63
2968.00,95.24
2956.00,92.93
2944.00,88.21
2932.00,87.59
2920.00,89.85
2908.00,91.88
2896.00,92.65
2884.00,93.47
2872.00,90.81
2860.00,90.89
2848.00,93.27
2836.00,96.01
2824.00,96.51
2812.00,96.85
2800.00,97.10
2788.00,97.26
2776.00,97.41
2764.00,97.50
2752.00,97.51
2740.00,97.55
2728.00,97.67
2716.00,97.81
2704.00,97.87
2692.00,97.89
2680.00,97.89
2668.00,97.95
2656.00,97.94
2644.00,97.91
2632.00,97.92
2620.00,97.81
2608.00,97.87
2596.00,97.77
2584.00,97.82
2572.00,97.82
2560.00,97.80
2548.00,97.78
2536.00,97.84
2524.00,97.91
2512.00,97.92
2500.00,97.92
2488.00,97.92
2476.00,98.00
2464.00,98.02
2452.00,98.05
2440.00,98.00
2428.00,98.10
2416.00,98.07
2404.00,98.16
2392.00,98.12
2380.00,98.33
2368.00,98.45
2356.00,98.41
2344.00,98.53
2332.00,98.50
2320.00,98.25
2308.00,98.22
2296.00,98.18
2284.00,98.06
2272.00,98.02
2260.00,97.93
2248.00,97.99
2236.00,97.87
2224.00,97.71
2212.00,97.61
2200.00,97.68
2188.00,97.39
2176.00,97.35
2164.00,97.25
2152.00,97.50
2140.00,97.80
2128.00,97.96
2116.00,97.99
2104.00,98.02
2092.00,98.10
2080.00,97.98
2068.00,97.89
2056.00,97.84
2044.00,97.62
2032.00,97.38
2020.00,97.44
2008.00,97.67
1996.00,97.60
1984.00,97.50
1972.00,97.63
1960.00,97.90
1948.00,97.95
1936.00,98.10
1924.00,98.08
1912.00,98.27
1900.00,98.29
1888.00,98.37
1876.00,98.45
1864.00,98.40
1852.00,98.48
1840.00,98.45
1828.00,98.42
1816.00,98.62
1804.00,98.57
1792.00,98.55
1780.00,98.48
1768.00,98.48
1756.00,98.29
1744.00,97.68
1732.00,97.13
1720.00,96.89
1708.00,96.80
1696.00,97.06
1684.00,95.68
1672.00,92.57
1660.00,86.77
1648.00,80.20
1636.00,70.03
1624.00,74.78
1612.00,82.76
1600.00,89.16
1588.00,91.43
1576.00,90.00
1564.00,85.92
1552.00,80.32
1540.00,74.11
1528.00,77.84
1516.00,84.43
1504.00,89.31
1492.00,91.66
1480.00,87.72
1468.00,87.71
1456.00,87.99
1444.00,89.08
1432.00,89.37
1420.00,87.48
1408.00,89.85
1396.00,92.21
1384.00,90.72
1372.00,88.61
1360.00,89.91
1348.00,90.98
1336.00,91.76
1324.00,92.45
1312.00,92.08
1300.00,91.27
1288.00,90.59
1276.00,89.83
1264.00,86.08
1252.00,88.61
1240.00,89.45
1228.00,91.84
1216.00,91.16
1204.00,89.29
1192.00,90.64
1180.00,91.84
1168.00,89.72
1156.00,92.83
1144.00,94.59
1132.00,95.05
1120.00,93.71
1108.00,94.08
1096.00,95.18
1084.00,95.27
1072.00,95.14
1060.00,95.85
1048.00,96.58
1036.00,96.46
1024.00,96.20
1012.00,96.81
1000.00,96.97
988.00,96.53
976.00,96.24
964.00,95.44
952.00,95.37
940.00,96.49
928.00,95.48
916.00,96.82
904.00,97.26
892.00,97.36
880.00,97.43
868.00,97.48
856.00,97.47
844.00,97.28
832.00,96.16
820.00,96.90
808.00,96.47
796.00,95.97
784.00,95.39
772.00,94.81
760.00,94.19
748.00,93.28
736.00,91.06
724.00,88.87
712.00,87.69
700.00,85.68
688.00,81.80
676.00,82.49
664.00,84.89
652.00,86.98
640.00,88.06
628.00,88.18
616.00,88.51
604.00,88.23
592.00,87.30
580.00,82.04
568.00,82.37
556.00,86.23
550.00,87.23

File: Nylon - 10.1.csv
Created as New Dataset,91 Du Pont
cm-1,%T
4000.00,99.65
3988.00,99.63
3976.00,99.59
3964.00,99.63
3952.00,99.71
3940.00,99.64
3928.00,99.61
3916.00,99.57
3904.00,99.68
3892.00,99.62
3880.00,99.65
3868.00,99.45
3856.00,99.54
3844.00,99.50
3832.00,99.52
3820.00,99.46
3808.00,99.51
3796.00,99.43
3784.00,99.50
3772.00,99.45
3760.00,99.41
3748.00,99.34
3736.00,99.31
3724.00,99.29
3712.00,99.32
3700.00,99.31
3688.00,99.25
3676.00,99.19
3664.00,99.19
3652.00,99.05
3640.00,99.10
3628.00,99.08
3616.00,98.97
3604.00,98.87
3592.00,98.85
3580.00,98.78
3568.00,98.60
3556.00,98.51
3544.00,98.34
3532.00,98.30
3520.00,98.16
3508.00,97.91
3496.00,97.81
3484.00,97.78
3472.00,97.75
3460.00,97.67
3448.00,97.50
3436.00,97.48
3424.00,97.44
3412.00,97.38
3400.00,97.21
3388.00,96.96
3376.00,96.69
3364.00,96.15
3352.00,95.33
3340.00,94.01
3328.00,91.83
3316.00,88.20
3304.00,83.86
3292.00,83.12
3280.00,85.39
3268.00,87.74
3256.00,90.01
3244.00,91.94
3232.00,93.39
3220.00,94.27
3208.00,94.70
3196.00,95.13
3184.00,95.57
3172.00,96.14
3160.00,96.65
3148.00,96.92
3136.00,97.01
3124.00,96.88
3112.00,96.52
3100.00,95.99
3088.00,95.42
3076.00,95.32
3064.00,95.49
3052.00,96.21
3040.00,97.00
3028.00,97.50
3016.00,97.73
3004.00,97.77
2992.00,97.63
2980.00,96.91
2968.00,95.12
2956.00,92.54
2944.00,87.68
2932.00,84.92
2920.00,87.59
2908.00,90.12
2896.00,92.57
2884.00,92.84
2872.00,90.40
2860.00,88.74
2848.00,92.61
2836.00,95.84
2824.00,96.49
2812.00,96.98
2800.00,97.35
2788.00,97.54
2776.00,97.69
2764.00,97.78
2752.00,97.86
2740.00,97.92
2728.00,98.04
2716.00,98.17
2704.00,98.23
2692.00,98.24
2680.00,98.30
2668.00,98.30
2656.00,98.29
2644.00,98.20
2632.00,98.12
2620.00,98.05
2608.00,98.00
2596.00,97.91
2584.00,97.88
2572.00,97.85
2560.00,97.90
2548.00,97.86
2536.00,97.90
2524.00,97.99
2512.00,98.00
2500.00,98.00
2488.00,97.96
2476.00,97.94
2464.00,98.00
2452.00,97.99
2440.00,98.07
2428.00,98.06
2416.00,98.07
2404.00,98.10
2392.00,98.28
2380.00,98.43
2368.00,98.45
2356.00,98.52
2344.00,98.45
2332.00,98.44
2320.00,98.22
2308.00,98.09
2296.00,97.93
2284.00,97.58
2272.00,97.45
2260.00,97.21
2248.00,97.12
2236.00,96.97
2224.00,96.95
2212.00,96.72
2200.00,96.52
2188.00,96.17
2176.00,96.04
2164.00,95.48
2152.00,96.35
2140.00,96.90
2128.00,97.23
2116.00,97.27
2104.00,97.18
2092.00,97.26
2080.00,97.20
2068.00,97.07
2056.00,96.94
2044.00,96.36
2032.00,96.06
2020.00,96.02
2008.00,96.48
1996.00,96.58
1984.00,96.35
1972.00,96.44
1960.00,96.80
1948.00,97.24
1936.00,97.39
1924.00,97.61
1912.00,97.73
1900.00,97.83
1888.00,97.90
1876.00,97.94
1864.00,98.05
1852.00,98.19
1840.00,98.18
1828.00,98.24
1816.00,98.37
1804.00,98.34
1792.00,98.34
1780.00,98.34
1768.00,98.26
1756.00,98.10
1744.00,97.80
1732.00,97.64
1720.00,97.69
1708.00,97.58
1696.00,97.43
1684.00,95.99
1672.00,92.15
1660.00,85.56
1648.00,76.53
1636.00,65.46
1624.00,68.41
1612.00,78.74
1600.00,86.20
1588.00,88.87
1576.00,86.66
1564.00,81.35
1552.00,75.42
1540.00,68.65
1528.00,68.32
1516.00,77.01
1504.00,83.81
1492.00,87.47
1480.00,85.15
1468.00,82.17
1456.00,83.46
1444.00,84.96
1432.00,84.83
1420.00,83.41
1408.00,87.15
1396.00,88.92
1384.00,87.05
1372.00,84.10
1360.00,85.41
1348.00,87.36
1336.00,88.49
1324.00,88.85
1312.00,88.61
1300.00,87.51
1288.00,86.36
1276.00,81.35
1264.00,82.69
1252.00,84.98
1240.00,86.13
1228.00,87.42
1216.00,88.63
1204.00,85.96
1192.00,85.38
1180.00,85.86
1168.00,89.55
1156.00,89.81
1144.00,88.13
1132.00,89.95
1120.00,91.09
1108.00,91.39
1096.00,91.54
1084.00,91.97
1072.00,92.05
1060.00,91.77
1048.00,91.99
1036.00,92.00
1024.00,92.54
1012.00,92.59
1000.00,93.01
988.00,93.38
976.00,93.77
964.00,93.73
952.00,93.17
940.00,90.42
928.00,90.20
916.00,92.15
904.00,91.99
892.00,93.33
880.00,93.51
868.00,93.79
856.00,93.56
844.00,93.22
832.00,93.14
820.00,92.69
808.00,92.16
796.00,91.26
784.00,90.95
772.00,90.00
760.00,88.73
748.00,87.73
736.00,84.69
724.00,81.56
712.00,81.04
700.00,78.88
688.00,75.42
676.00,75.97
664.00,78.07
652.00,79.98
640.00,81.71
628.00,81.48
616.00,81.63
604.00,80.96
592.00,79.89
580.00,74.21
568.00,76.81
556.00,80.17
550.00,81.01